,seconds_elapsed,z,y,x
0,0.143439697,-2.846007824,-0.581976891,-0.46824646
1,0.159217041,-2.65146637,-0.560432315,-0.418556929
2,0.175116699,-2.132023811,-0.366185665,-0.535990119
3,0.190986084,-1.023349762,-0.04103899,-0.522485018
4,0.206763428,-0.449766159,0.2290151119232177,-0.356920421
5,0.222663086,-0.719320297,0.2695872783660888,-0.15787816
6,0.238471436,-0.810947418,0.145296574,-0.244672239
7,0.254371094,0.3405961990356445,0.1491501331329345,-0.077587843
8,0.270270752,1.5721473693847656,0.2505974769592285,0.2889077663421631
9,0.286078613,2.3789119720458984,0.1962623596191406,0.649343729
10,0.301978271,2.8623199462890625,0.2037711143493652,0.3647843599319458
11,0.317908691,2.700389862060547,0.1471118927001953,-0.003412008
12,0.333777588,2.1640186309814453,-0.057687163,-0.409338117
13,0.349616455,2.0739917755126958,0.1451317071914672,-0.673207581
14,0.365485596,2.3445873260498047,0.2557688951492309,-0.729026496
15,0.381568359,2.417898178100586,0.2013574838638305,0.025755763
16,0.397345703,2.2820701599121094,-0.122758389,0.3317008018493652
17,0.413154053,2.794582367,-0.566465557,-0.031676352
18,0.428992432,3.740675926208496,-0.980634391,-0.319312692
19,0.444800781,5.018012046813965,-1.098864675,0.1911458969116211
20,0.460669922,5.592435836791992,-1.40125227,0.7965996861457825
21,0.476508301,4.933927536010742,-1.172561646,1.0021618604660034
22,0.492347168,3.0177392959594727,-1.029299259,0.6576481461524963
23,0.508124756,1.3911638259887695,-0.858512282,0.058589995
24,0.5239021,0.4463663101196289,-0.654143631,-0.049235523
25,0.539740967,-0.004172325,-0.590934575,0.1026353240013122
26,0.555548828,-0.338381767,-0.586635113,0.3203808665275574
27,0.571387695,-0.974452019,-0.501717806,0.3753707408905029
28,0.587195557,-1.347993851,-0.400191069,0.2716492116451263
29,0.603003906,-1.939397812,-0.391282558,0.1420627981424331
30,0.618934082,-2.773595333,-0.502795815,-0.126885012
31,0.634741943,-2.900094986,-0.54095161,-0.303897798
32,0.650611084,-2.399430752,-0.491657972,-0.092907213
33,0.666449951,-1.881776333,-0.537903428,0.4635798931121826
34,0.682257813,-1.759528637,-0.499000669,0.7412582039833069
35,0.698157471,-2.377007484,-0.392492414,0.2373936921358108
36,0.71396582,-3.094855785,-0.031425595,-0.082133681
37,0.729804199,-3.678683758,0.1797957420349121,-0.274211943
38,0.745643066,-3.87898159,0.2424015998840332,-0.234604374
39,0.761481689,-3.156731129,0.2445688247680664,-0.289697707
40,0.777411865,-1.741560936,0.1422576904296875,-0.374059677
41,0.793250488,-0.301998138,0.098935843,-0.341155857
42,0.809180664,1.0535945892333984,0.050168276,-0.393536329
43,0.825019043,1.5996198654174805,-0.037647724,-0.310917854
44,0.840827393,1.2412605285644531,-0.163565159,-0.184471056
45,0.856727051,1.053497314453125,-0.106122494,-0.452747852
46,0.872535156,0.9728059768676758,-0.424127102,-1.008360744
47,0.888404297,1.40826416,-0.451901555,-0.923455954
48,0.904212158,1.921133041381836,-0.53486371,-1.183487177
49,0.91998999,2.4613771438598637,-0.730426669,-1.775396109
50,0.935889648,2.388934135437012,-0.869455695,-2.052634478
51,0.951636719,1.866504669189453,-1.191437125,-1.622460485
52,0.967536377,1.3687772750854492,-1.660028934,-1.354028463
53,0.983344482,1.4207944869995115,-1.730351806,-1.472456813
54,0.999244141,1.536418914794922,-1.606606483,-1.856554508
55,1.015113281,1.8923463821411133,-1.359781504,-2.145539284
56,1.030951904296875,1.5842819213867188,-1.321430922,-2.342544079
57,1.046820801,1.268878936767578,-1.118527174,-2.422440529
58,1.062659668,1.0196514129638672,-0.982948184,-2.343126059
59,1.078467773,0.4025325775146484,-0.890715122,-2.22850132
60,1.094367431640625,-0.506069183,-0.819964647,-1.982892632
61,1.110175537109375,-1.595736504,-0.505800247,-1.803790092
62,1.126075195,-2.154532433,-0.331769407,-1.79568696
63,1.141913818359375,-2.283013821,-0.159397066,-1.574979186
64,1.157782715,-2.079379559,-0.016326904,-1.162612677
65,1.173651855,-2.148258209,0.1065577268600463,-0.837670088
66,1.189490723,-2.167449474,0.1557914018630981,-0.558764398
67,1.205481934,-1.851746082,0.2480585575103759,-0.332333475
68,1.221290039,-2.127427578,0.4192040562629699,-0.170171261
69,1.23715918,-2.764023304,0.6824235320091248,-0.21576789
70,1.25302832,-3.726355553,0.9624554514884948,-0.66065824
71,1.268836426,-3.805017471,1.2202112674713137,-0.746095538
72,1.284766357421875,-3.006337643,1.247902512550354,-0.668910682
73,1.300605224609375,-1.615462303,1.1445024013519287,-0.421607733
74,1.316474365234375,0.1391839981079101,1.017978549003601,-0.353948683
75,1.332343505859375,1.4851179122924805,0.8698792457580566,-0.47580269
76,1.348121094,2.0567169189453125,0.7726507186889648,-0.605750442
77,1.363959473,2.1631641387939453,0.525965691,-0.49564141
78,1.37979834,2.058024406433105,0.4559088945388794,-0.685949564
79,1.395636962890625,1.8342208862304688,0.2588181495666504,-0.811847627
80,1.411505859,1.708417892456055,-0.067774057,-0.628426015
81,1.427344727,2.615478516,0.067501664,0.027970016
82,1.443213867,3.0270299911499023,0.3089672327041626,0.432580829
83,1.459052490234375,2.482306480407715,0.2669142484664917,0.5096502900123596
84,1.474830078,1.8826837539672847,0.1300328969955444,0.3490045666694641
85,1.490699219,2.3912506103515625,-0.230980277,0.3471745252609253
86,1.506507324,3.183260917663574,-0.668754101,0.379848301
87,1.522406982421875,4.392009735107422,-0.652835429,0.4464510083198547
88,1.538276123046875,4.439455032348633,-0.74754107,0.5999107956886292
89,1.554114746,3.652797699,-0.930193007,0.7105991840362549
90,1.570014404296875,2.4907665252685547,-0.997567475,0.4741873145103454
91,1.585791992,1.258284568786621,-1.036787987,0.3675285577774048
92,1.601722168,-0.067116737,-1.037647605,0.128222108
93,1.617530029296875,-0.661336899,-1.101811171,-0.120240241
94,1.633338379,-0.621980667,-1.093113899,-0.04235512
95,1.649238037109375,-0.334259033,-1.162619591,0.2050799429416656
96,1.665045898,0.03459549,-1.110896945,0.5087270736694336
97,1.680915283203125,-0.159556389,-0.973602891,0.6030729413032532
98,1.696723388671875,-1.058663368,-0.754673004,0.6366068124771118
99,1.712531494140625,-2.283554077,-0.54130137,0.576542854
100,1.728400634765625,-3.265496254,-0.453662336,0.4570047259330749
101,1.744178223,-3.636424065,-0.416197956,0.2917016148567199
102,1.760047363,-3.259398937,-0.326519608,0.2212816625833511
103,1.775855469,-2.853649139,-0.18886435,0.436906099
104,1.791663574,-2.768708706,0.1231087446212768,0.8520667552947998
105,1.807563232421875,-3.08450985,0.3902091979980469,0.9667909145355223
106,1.82334082,-3.38165617,0.5682008266448975,0.6930137276649475
107,1.839240478515625,-3.323185444,0.5642203092575073,0.2397927045822143
108,1.855079102,-2.511737347,0.5409384965896606,0.1496613025665283
109,1.870887207,-1.253124237,0.3276325464248657,0.2131883203983307
110,1.886756348,0.5038719177246094,0.1444979906082153,0.5791530609130859
111,1.902564453,1.6861820220947266,-0.040424347,0.8471505641937256
112,1.918433594,1.8380279541015625,-0.130963087,0.8963031768798828
113,1.934241455078125,1.8286638259887693,0.006604433,0.50009501
114,1.950049805,1.3040285110473633,0.088393688,-0.528973818
115,1.965949462890625,0.9349451065063475,-0.119431734,-1.404764771
116,1.981727051,1.5420169830322266,-0.010080934,-1.013557434
117,1.997596191,2.1521358489990234,-0.45813477,-0.638687134
118,2.013434814453125,2.5034780502319336,-0.547752261,-0.764459968
119,2.029242919921875,2.054696083068848,-0.702222645,-1.363498092
120,2.045112060546875,1.8828487396240237,-1.036555052,-2.054517031
121,2.060920166015625,1.9973840713500977,-1.444748878,-2.736756325
122,2.076819824,2.580878257751465,-1.640190125,-2.691663265
123,2.092658447265625,2.789833068847656,-1.720196724,-2.356209517
124,2.108496826171875,2.805182456970215,-1.375690222,-1.909450412
125,2.124365966796875,1.9961671829223635,-1.171179533,-2.046463966
126,2.140204833984375,0.7311630249023438,-1.063152909,-2.068482876
127,2.156104492,-0.246863365,-0.936789036,-1.922868133
128,2.171943115234375,-1.236682892,-0.944915295,-1.781538963
129,2.187781738,-1.802064896,-0.946330309,-1.16140461
130,2.203650879,-1.841409683,-0.869343221,-0.758930683
131,2.219458740234375,-1.602407455,-0.652886152,-0.357765913
132,2.235327880859375,-1.722569466,-0.36918664,-0.182878241
133,2.251166748046875,-2.199853897,-0.143634915,-0.033567563
134,2.266974609,-2.815533161,0.096947789,-0.006784927
135,2.282843994140625,-3.223134041,0.3705145716667175,-0.258867353
136,2.298591064453125,-3.389783859,0.563829243,-0.311969966
137,2.314490723,-3.478661537,0.6445400714874268,-0.210886419
138,2.330298828,-3.307961464,0.8036085367202759,-0.128073081
139,2.346106934,-2.463631153,0.9789834022521972,0.068254828
140,2.361976074,-1.675656319,1.0417957305908203,0.1873048841953277
141,2.377753662109375,-1.553371429,1.0751930475234983,0.1684100925922393
142,2.39365332,-1.558968544,1.159074306488037,-0.155504376
143,2.409491943359375,-0.366205215,1.144315242767334,-0.364959419
144,2.425300048828125,0.943889618,1.128461480140686,-0.192841768
145,2.441169189453125,1.7843046188354492,1.070459485054016,0.2655044198036194
146,2.456977051,2.251680374145508,0.58478713,0.6755443811416626
147,2.472876708984375,2.709287643432617,0.2921730279922485,0.5273807644844055
148,2.488746094,3.024932861328125,-0.045912027,0.097441614
149,2.504493164,3.314357758,-0.381471753,-0.05378592
150,2.520362305,3.1899328231811523,-0.226558328,0.2795639634132385
151,2.536170166015625,2.512721061706543,-0.165069222,0.7748964428901672
152,2.552039306640625,2.295416831970215,-0.294980645,0.8104323744773865
153,2.567847656,2.988290786743164,-0.745922267,0.5716620087623596
154,2.583655762,4.327324867248535,-1.322089911,0.6715434193611145
155,2.599433105,5.273904800415039,-1.440841913,0.8524677753448486
156,2.615241455078125,4.813808441162109,-1.586641431,1.3140686750411987
157,2.631141113,3.505791664123535,-1.58795321,1.4204694032669067
158,2.646979492,1.8804712295532229,-1.540379763,1.1278016567230225
159,2.662818359,0.8120231628417969,-1.466128111,0.7369645833969116
160,2.678718017578125,0.1840877532958984,-1.479181528,0.6499497294425964
161,2.694495605,-0.031982422,-1.502480149,0.6361368894577026
162,2.710334228515625,-0.60433197,-1.571480751,0.5765860080718994
163,2.72614209,-1.028240204,-1.589303732,0.5572865009307861
164,2.741980957,-1.263307571,-1.632218957,0.5943179726600647
165,2.757850098,-1.40040493,-1.531454682,0.6201172471046448
166,2.773658203,-1.711572647,-1.418959379,0.5910371541976929
167,2.789496826171875,-2.47098732,-1.261810184,0.5565903782844543
168,2.805365966796875,-2.966590405,-1.187567234,0.6247040033340454
169,2.821174072265625,-3.178296089,-1.069269538,0.7419608235359192
170,2.837043212890625,-3.349866867,-0.93559438,0.739493191
171,2.852851318359375,-3.581049442,-0.847841442,0.6937336921691895
172,2.868659423828125,-3.548947334,-0.720073998,0.6576276421546936
173,2.884497802734375,-3.161067963,-0.543708086,0.5961450934410095
174,2.900306152,-2.983879566,-0.315928817,0.6587674021720886
175,2.916175293,-3.126515865,-0.118196964,0.7881249785423279
176,2.931983398,-3.205755234,0.1307246685028076,0.7487974166870117
177,2.947852539,-2.383393764,0.2566190958023071,0.4103727340698242
178,2.963752197265625,-1.328704834,0.2469992637634277,0.3537605702877044
179,2.979621337890625,0.080525398,0.2365133762359619,0.6165314316749573
180,2.995490234,1.4354963302612305,0.050718427,0.6276976466178894
181,3.011329102,2.295119285583496,0.011513829,0.3506763577461242
182,3.027259033203125,2.4359798431396484,0.010886431,0.2232232987880706
183,3.043067383,2.087038993835449,-0.085821986,-0.001648664
184,3.058875488,2.063199043273926,-0.098222852,-0.507289469
185,3.074775146484375,2.745227813720703,0.2070938348770141,-0.97601074
186,3.09061377,3.076627731323242,-0.078208089,-0.883348286
187,3.106391357421875,3.6019859313964844,-0.320034385,-0.36195749
188,3.122199219,3.699732780456543,-0.920932055,-0.608912408
189,3.138007568359375,3.609129905700684,-1.515551805,-1.356422424
190,3.153876708984375,3.4940719604492188,-1.65885663,-1.525186539
191,3.169684814453125,3.941037178039551,-1.967110634,-1.893405437
192,3.185584473,4.383210182189941,-1.679341793,-1.670382142
193,3.201392578,3.6172285079956055,-1.502535105,-1.469445705
194,3.217200684,2.330006599426269,-1.280559421,-1.327087641
195,3.233069824,0.6671648025512695,-0.981817722,-1.847530961
196,3.24887793,-0.805788994,-0.801936507,-1.900735974
197,3.264686035,-1.835813999,-0.834327459,-1.159957409
198,3.280494141,-2.524623394,-0.925954163,-0.446157396
199,3.296271728515625,-2.510071754,-0.782666504,-0.107462496
200,3.31220166,-2.429647446,-0.653092325,-0.074190795
201,3.328040527,-2.671610355,-0.514481604,0.096435919
202,3.343909668,-2.657922268,-0.327382982,0.3183602392673492
203,3.359778809,-2.996197701,-0.155538559,0.2723316848278045
204,3.375617188,-3.81755209,-0.039735436,0.1537714004516601
205,3.391516845703125,-4.462231159,0.044983029,0.08606112
206,3.407294677734375,-4.143797874,0.1711242198944091,-0.226574063
207,3.423133301,-3.22716856,0.1860489845275879,-0.143461525
208,3.438971923828125,-2.44423151,0.2852940559387207,0.2780866026878357
209,3.454810302734375,-2.282895565,0.4393787384033203,0.3485810756683349
210,3.470710205078125,-2.336797714,0.576958418,0.013012767
211,3.486579102,-1.690169334,0.6193735599517822,-0.292822003
212,3.502478759765625,-0.585625648,0.4120115041732788,0.00148055
213,3.518287109,1.894850730895996,0.4211641550064087,0.6522457599639893
214,3.534095215,3.043121337890625,0.2510805130004883,1.1905617713928225
215,3.549964355,2.3708419799804688,0.2945815324783325,1.4099313020706177
216,3.565802978515625,1.3714609146118164,0.1855952739715576,0.6525529623031616
217,3.581702637,1.8121747970581052,-0.068659067,-0.620987177
218,3.597480224609375,3.3122949600219727,-0.009057999,-0.801404119
219,3.613257813,4.758007049560547,0.1962624788284301,0.091186345
220,3.629126953,5.494581223,0.3417528867721557,1.192209243774414
221,3.644934814453125,5.551191329956055,0.3195780515670776,1.0061883926391602
222,3.660834473,5.2281341552734375,-0.032233238,0.2064703106880188
223,3.67667334,4.786756516,-0.410754681,-0.464757293
224,3.692481201171875,4.494217872619629,-0.717119813,-0.349957228
225,3.708380859,3.620839119,-1.211193323,0.268223226
226,3.724189208984375,2.4474496841430664,-1.573442698,0.8082977533340454
227,3.740149658203125,1.3581676483154297,-1.686944604,1.3219406604766846
228,3.756080078,0.080690384,-1.633556843,1.494209051132202
229,3.771888184,-1.246072769,-1.462453842,1.2745250463485718
230,3.787726806640625,-2.423294544,-1.366896391,0.819215715
231,3.803595703,-3.443059921,-1.44288373,0.3565571010112762
232,3.819495361328125,-3.744643688,-1.484138131,0.1726948618888855
233,3.835273193359375,-3.624597073,-1.512853146,0.723268986
234,3.851081298828125,-3.934205055,-1.612695575,1.0459773540496826
235,3.866980957,-4.011280537,-1.592225075,1.0573151111602783
236,3.882789063,-3.822604656,-1.478862047,0.7581835389137268
237,3.898566650390625,-3.422760487,-1.207505822,0.132233053
238,3.914374755859375,-2.868167877,-1.092126846,-0.108802594
239,3.930213379,-2.425559998,-0.909119368,0.054521974
240,3.946113037109375,-1.973483562,-0.693935037,0.057350967
241,3.961921142578125,-1.666068554,-0.29900527,-0.298275501
242,3.977790283203125,-2.276524067,0.2914283275604248,-0.797093451
243,3.993659423828125,-3.138286591,0.5903874635696411,-0.530547738
244,4.009467285,-3.076750278,0.6619217395782471,0.4459106922149658
245,4.025397705078125,-1.472980499,0.448479414,1.108223319
246,4.041266602,1.576679229736328,0.3915026187896728,1.384401559829712
247,4.057166259765625,3.367664337158203,0.5703065395355225,1.334299921989441
248,4.072974609,3.492842674255371,0.4849851131439209,1.3475024700164795
249,4.088752197265625,3.7129335403442383,0.5504076480865479,1.0535151958465576
250,4.104621337890625,3.7457237243652335,0.3887948989868164,0.8427926898002625
251,4.120459961,3.517937660217285,0.002333403,0.2267043590545654
252,4.136328857421875,3.5651636123657227,-0.141537666,-0.060168549
253,4.152198242,3.465468406677246,-0.432496905,-0.072046086
254,4.168006348,2.6472787857055664,-0.559703946,-0.119239867
255,4.183875244140625,2.044365882873535,-0.676716328,-0.477794826
256,4.199714111328125,2.003185272216797,-1.009570122,-1.258519769
257,4.215583251953125,2.780347824,-1.301526308,-2.037839413
258,4.231421630859375,3.681728363037109,-1.700986028,-2.191625118
259,4.247260498046875,4.446702003479004,-1.79423058,-1.950502515
260,4.263160156,4.418827056884766,-2.114378452,-2.002119541
261,4.278876708984375,3.119979858398437,-1.660828352,-1.804778695
262,4.294837158203125,0.3847103118896484,-1.278957963,-2.958632231
263,4.310645508,-2.260408878,-0.967701435,-3.580644846
264,4.326483887,-3.446847439,-0.966346741,-2.903163671
265,4.342383544921875,-3.067418575,-1.115681887,-1.775960445
266,4.358191895,-2.049709797,-1.213142633,-0.453171313
267,4.374091552734375,-1.222766876,-1.175940871,0.5333817601203918
268,4.389869141,-1.247993469,-0.953392506,0.778232992
269,4.405707763671875,-2.17686367,-0.680566192,0.4935814142227173
270,4.421637939453125,-3.505068302,-0.452114463,0.090613902
271,4.437415527,-4.647112846,-0.253078699,0.2454480528831482
272,4.453315185546875,-5.021545887,-0.141491413,0.1931737065315246
273,4.469184326171875,-4.12771225,-0.14299202,0.1852184534072876
274,4.485022949,-2.982762337,-0.167381644,0.2806706428527832
275,4.500922607421875,-2.211967468,-0.122780919,0.3626618981361389
276,4.516730712890625,-2.233268738,0.039216876,0.3970012664794922
277,4.532630371,-2.2141819,0.3622145652770996,0.037982464
278,4.548438477,-1.489711761,0.7391942739486694,-0.429743171
279,4.564246582,-0.846582413,0.9387526512145996,-0.43770045
280,4.580176758,1.0806093215942385,0.7816070318222046,0.4776886105537414
281,4.595984863,2.668857574,0.5904161930084229,1.538617491722107
282,4.611853759765625,3.007147789001465,0.5748395919799805,1.4281001091003418
283,4.627692626953125,2.803308486938477,0.552439809,0.014590859
284,4.643500732421875,2.998410224914551,0.3127959966659546,-1.003579259
285,4.659369629,3.643754005432129,0.2946213483810425,-0.530030668
286,4.675177978515625,4.148955345153809,0.505030632,0.1154818534851074
287,4.691077637,2.3308067321777344,0.8079448938369751,1.103097915649414
288,4.706916016,2.043323516845703,0.2536332607269287,1.0955557823181152
289,4.722724365234375,5.877235412597656,-0.244406819,0.07464397
290,4.738624023,8.555564880371094,-0.62328285,-1.693793297
291,4.754401611328125,6.8713579177856445,-0.784259737,-2.110332012
292,4.770209473,1.3409881591796875,-1.106907368,-0.14607802
293,4.786078613,-3.016765594,-1.245801926,1.0838173627853394
294,4.801886962890625,-3.057817459,-1.62868166,1.5939961671829224
295,4.817756103515625,-0.735064507,-1.953891516,1.4271161556243896
296,4.833533691,0.8599166870117188,-2.021571875,0.8037142753601074
297,4.849402832,0.6894969940185547,-1.808093786,0.9441512823104858
298,4.865271728515625,-0.002058983,-1.67250371,1.2779195308685305
299,4.881080078,-0.242235184,-1.532634258,1.1741647720336914
300,4.896918457,-0.509311676,-1.503744483,1.2419836521148682
301,4.912757324,-1.505819321,-1.357305884,1.2357771396636963
302,4.928595947265625,-2.689036369,-1.159289837,1.0530450344085691
303,4.944434326171875,-3.742930412,-0.888268709,0.8627986907958984
304,4.960242676,-4.307442188,-0.79940474,0.8646979331970215
305,4.976111816,-4.340690136,-0.762572765,0.4763838946819305
306,4.991919922,-4.089774609,-0.382679999,0.1560782790184021
307,5.007789063,-3.412140369,-0.209991455,0.1228957772254943
308,5.023627441,-2.510276318,-0.016692638,0.3924845457077026
309,5.039435791015625,-2.298979282,0.1362870931625366,0.6002668142318726
310,5.055335449,-3.021653175,0.4401881694793701,0.3619592785835266
311,5.071143310546875,-3.139575005,0.8078272342681885,-0.260584414
312,5.087012695,-0.702810287,0.8713918924331665,-0.545524716
313,5.102881836,2.423172950744629,0.4841184616088867,0.1071654260158538
314,5.118689697265625,4.568610191345215,0.2239261865615844,0.9185099601745604
315,5.134559082,4.412477493286133,0.078579903,1.1577463150024414
316,5.150367188,2.7896242141723637,0.2235255241394043,0.7813530564308167
317,5.166236083984375,1.3328514099121094,0.294719934,-0.161736965
318,5.182074951171875,1.6435871124267578,0.3293495178222656,-1.762705564
319,5.197882813,3.182497024536133,0.5835071802139282,-1.872101545
320,5.213782715,3.899182319641113,0.5677460432052612,-1.296902776
321,5.22959082,3.1825733184814453,0.6419558525085449,-1.478949547
322,5.245490478515625,2.0107879638671875,0.2717229127883911,-1.871588945
323,5.261268066,1.3427047729492188,-0.662834048,-2.195653915
324,5.277076172,1.895460129,-1.633788586,-2.569101095
325,5.292945068359375,3.419207572937012,-2.377895355,-2.609120607
326,5.308753418,4.177652359008789,-2.846438408,-1.262725234
327,5.324622559,3.954966545104981,-2.663392544,0.091084599
328,5.340491455078125,2.368478775024414,-2.286299706,0.073351845
329,5.356269287109375,-0.048434258,-1.90800035,-1.059736609
330,5.372139404296875,-2.290629387,-1.469446898,-2.410079002
331,5.388100098,-2.990506172,-1.284989953,-2.252418041
332,5.403999755859375,-2.943045139,-1.285626292,-1.204123497
333,5.419838379,-2.617361546,-1.307584286,-0.528901815
334,5.435677246,-2.314455509,-1.219111323,0.005805209
335,5.451546142578125,-2.429427624,-1.018524051,0.2981705665588379
336,5.467354248046875,-2.814273834,-0.701892793,0.017559916
337,5.483253906,-3.306388378,-0.365447998,-0.24852103
338,5.499092773,-4.114928246,-0.187995017,-0.336635798
339,5.514931152,-5.01849556,0.014560461,-0.297521055
340,5.530800293,-5.003138065,-0.010355949,-0.243135005
341,5.546608398,-3.932828426,-0.037143469,0.293784499
342,5.562569336,-2.574137688,0.1296699047088623,0.623895526
343,5.578407715,-1.992706776,0.3581404685974121,0.3593661189079284
344,5.594246337890625,-2.112295151,0.6907999515533447,0.1609399318695068
345,5.610145996,-1.809081078,0.9904932975769044,0.016041994
346,5.625923583984375,-1.009634018,1.082810878753662,0.361618161
347,5.641823242,1.3773880004882812,0.9962656497955322,1.244115114212036
348,5.657631591796875,3.684591293334961,0.8753467798233032,2.142578125
349,5.673469970703125,4.383968353271484,0.6738731861114502,1.8276194334030151
350,5.689369629,3.941354751586914,0.5304993391036987,0.2269713878631591
351,5.705208251953125,3.570344924926758,0.2952511310577392,-1.454948187
352,5.72110791,3.495011329650879,0.3469172716140747,-1.373928189
353,5.736885498046875,3.30551815,0.390399694,-0.434849143
354,5.752663330078125,4.300148963928223,0.6059427261352539,0.3569288253784179
355,5.768562988,5.316220283508301,0.3868098258972168,0.1043263673782348
356,5.784370849609375,5.815791130065918,-0.139419496,-0.239850879
357,5.800392822265625,5.8348541259765625,-0.701008081,-0.71259594
358,5.816231201171875,4.967952728271484,-1.160007715,-0.924396873
359,5.832039306640625,3.1722803115844727,-1.445354462,-0.343767107
360,5.848,0.9186248779296876,-1.600168705,0.2237778902053833
361,5.863777832,-0.246991158,-1.694898844,0.2415812015533447
362,5.879585693359375,-0.650698662,-1.983328581,0.3679460287094116
363,5.895393798828125,-0.575077057,-2.037018776,0.5737651586532593
364,5.911171630859375,-0.531255722,-2.064262152,0.6352543830871582
365,5.927010009765625,-0.87071228,-1.908815861,0.4598771333694458
366,5.942818359,-1.635050774,-1.755744338,0.4804383516311645
367,5.958687255859375,-1.877484798,-1.444216967,0.8280783295631409
368,5.974525879,-2.526619911,-1.129071474,0.64171356
369,5.990333984,-3.400434971,-0.981981993,0.2712491750717163
370,6.006233887,-4.124526024,-0.887159288,-0.027232468
371,6.022041748046875,-4.361713886,-0.736159325,-0.182464778
372,6.037849853515625,-3.98793602,-0.695814848,-0.234861493
373,6.053688477,-3.338829517,-0.628181636,-0.242468834
374,6.069527344,-3.526816368,-0.350665748,-0.108046889
375,6.08545752,-4.391052723,0.091235042,-0.217070907
376,6.101295898,-4.986938,0.5456582307815552,-0.547787607
377,6.117195801,-3.669448376,0.7329427003860474,-0.064433217
378,6.132973388671875,-1.813194752,0.8350732326507568,0.6711260080337524
379,6.14878125,0.3507032394409179,0.8889751434326172,1.1378310918807983
380,6.164650391,1.8847169876098635,0.9098132848739624,1.4798680543899536
381,6.180367188,2.9466428756713867,0.99415946,1.426683545
382,6.196297119140625,2.8994293212890625,1.094011306762695,0.8559049367904663
383,6.212105224609375,2.708730697631836,1.1561195850372314,0.2876593768596649
384,6.227974365234375,2.9187450408935547,1.0001106262207031,-0.301468849
385,6.243874023,3.511784553527832,0.8423707485198975,-0.467416227
386,6.259651611328125,4.048961639404297,0.8107571601867676,-0.539442301
387,6.275459961,4.270446777,0.6499170064926147,-0.587704957
388,6.291298583984375,3.631028175354004,0.4278485774993896,-1.041676044
389,6.307106445,2.431671142578125,-0.320329607,-1.79199636
390,6.323006103515625,3.0376882553100586,-1.626203775,-1.524792194
391,6.338814208984375,4.439118385314941,-2.56296587,-0.608928442
392,6.354652832,4.880892753601074,-3.177930355,0.068959355
393,6.370491699,3.662666320800781,-3.040292263,-0.169802964
394,6.386299560546875,2.525832176208496,-2.707244873,-2.125927448
395,6.402229736328125,1.2306642532348633,-2.025829554,-3.762522221
396,6.417976806640625,-0.143180847,-1.425807238,-2.987288952
397,6.433876465,-1.694694996,-1.250271678,-1.436580658
398,6.449715087890625,-2.43189621,-1.24366951,-0.598093569
399,6.465523193359375,-2.22827673,-1.127993822,-0.145429552
400,6.481422852,-1.960864067,-0.788208246,0.074208617
401,6.497231201171875,-2.368953705,-0.431683183,0.014531016
402,6.513100341796875,-3.096124172,-0.034825921,-0.644609749
403,6.528938720703125,-4.121918678,0.2854838371276855,-1.092899084
404,6.544777587890625,-5.293653488,0.3155537843704223,-0.9840554
405,6.560677001953125,-5.860794067,0.1103467941284179,-1.226413608
406,6.576424072265625,-5.290052414,-0.005806923,-0.738904595
407,6.592262939453125,-4.961796761,-0.136315465,-0.435602307
408,6.608101318359375,-4.588648796,0.071115971,0.035888433
409,6.623940185546875,-4.144334793,0.2909015417098999,0.574857235
410,6.639809326171875,-3.249167442,0.6273995637893677,1.039138913154602
411,6.655617188,-2.604478359,0.872999907,0.8790404796600342
412,6.671516845703125,-1.766661644,1.192971110343933,-0.032979369
413,6.687324951171875,0.9629678726196288,0.9955333471298218,-0.768250346
414,6.703133301,4.561761856079102,0.6611330509185791,-0.220634222
415,6.719063232421875,5.921131134033203,0.41007638,0.8726451992988586
416,6.73484082,4.627107620239258,0.5585860013961792,0.8594918847084045
417,6.750709961,3.753984451293945,0.7552676200866699,-0.248084724
418,6.766548828,3.6966609954833984,0.7800391912460327,-1.159009814
419,6.782356689453125,4.081661224365234,0.8755522966384888,-0.747118592
420,6.798256348,4.160650253295898,0.7100248336791992,0.060576558
421,6.814095215,3.3313236236572266,0.4847476482391357,1.268596649169922
422,6.829964355,3.350304604,-0.096903086,1.3732433319091797
423,6.845802734,4.718306541442871,-0.977802157,0.6358256936073303
424,6.861611083984375,6.254369735717773,-1.655988455,0.5745683908462524
425,6.877480224609375,6.065991401672363,-2.185751915,1.1060718297958374
426,6.893318603515625,4.431463241577148,-2.168933153,1.455627679824829
427,6.909187744140625,1.7418441772460938,-1.847399235,1.0909271240234375
428,6.924995849609375,-0.667906761,-1.382460237,0.6784260869026184
429,6.940773681640625,-2.676634312,-0.936577559,0.2562876939773559
430,6.956703857421875,-3.581057549,-0.805566609,0.217615545
431,6.97242041,-3.278177261,-0.893812299,0.038408995
432,6.988289306640625,-2.092887878,-1.089193463,0.1001635193824768
433,7.00412793,-1.034255028,-1.136021376,0.2318600416183471
434,7.01999707,-1.080043793,-1.076208591,0.7894775867462158
435,7.035927246,-1.680312157,-0.855146527,0.8389148116111755
436,7.051704833984375,-2.506658554,-0.596829176,0.6418842077255249
437,7.067604492,-3.600953102,-0.379811138,0.3890788555145263
438,7.083473633,-4.602041245,-0.277567744,0.1409648656845092
439,7.099281982421875,-4.747001648,-0.093470335,0.2915259599685669
440,7.115120361328125,-4.749184608,0.1344923973083496,0.3436745107173919
441,7.130958984,-4.771044254,0.4794539213180542,0.1963126957416534
442,7.146828369140625,-4.67544508,0.7143197059631348,-0.181880385
443,7.162666748046875,-3.55676651,0.9908429384231568,-0.391715586
444,7.178475098,-2.265081882,1.0267884731292725,-0.497687161
445,7.194344238,0.6393518447875977,1.070754885673523,-0.379091024
446,7.210152099609375,2.6259117126464844,0.9706077575683594,0.1127162277698516
447,7.226051758,3.0379514694213867,0.4276553392410278,0.963506818
448,7.241859863,3.0581369400024414,0.5674871206283569,1.111999750137329
449,7.257698486328125,3.056150436401367,0.6561191082000732,0.2212464809417724
450,7.273567626953125,3.0128307342529297,0.5017770528793335,-0.688676298
451,7.289406494140625,4.149626731872559,0.193024993,-1.166117072
452,7.305275391,5.233111381530762,0.033539295,-0.849452257
453,7.321114013671875,5.238990783691406,-0.780144691,-0.794505477
454,7.336952880859375,4.399487495422363,-0.753102243,0.003955424
455,7.352821777,3.180017471313477,-1.074760675,-0.115380526
456,7.368630126953125,2.470111846923828,-1.572197914,-0.686349213
457,7.384499267578125,2.4036340713500977,-2.055023432,-1.018365145
458,7.400429199,2.962670326,-2.532913208,-1.094487667
459,7.416237305,3.398003578186035,-2.618243933,-1.124981642
460,7.432106445,2.419207572937012,-2.572928905,-1.183431864
461,7.447914794921875,0.3440170288085937,-1.999044657,-0.788534224
462,7.463814453,-1.968812466,-1.581635237,-0.678186953
463,7.479592041015625,-3.643250465,-1.39311564,-0.815203547
464,7.495399902,-3.794606686,-1.415904522,-1.224339604
465,7.511299560546875,-3.364735126,-1.325989962,-1.32800734
466,7.527077148,-2.503611565,-1.051786661,-1.377703547
467,7.542946289,-2.168726444,-0.67820847,-0.705182791
468,7.55881543,-2.169670105,-0.287116766,0.098431438
469,7.574593017578125,-2.443163395,0.1644074320793151,0.6106554269790649
470,7.590462158203125,-2.924913406,0.4700515270233154,0.6614704728126526
471,7.606270508,-3.385766983,0.6391416192054749,0.6044667959213257
472,7.622170166015625,-4.039753914,0.5991637110710144,0.3258476555347442
473,7.637978027,-4.366071701,0.531009316,0.218232125
474,7.653755615234375,-3.96016407,0.6421305537223816,-0.131673306
475,7.669594482421875,-2.299323559,0.7832630276679993,-0.257692277
476,7.685432861328125,-0.156656265,0.5397379398345947,-0.316303104
477,7.701302001953125,0.6200828552246094,0.6522422432899475,-0.006704628
478,7.717110352,0.9272642135620116,0.6639610528945923,0.4617271423339844
479,7.732887695,0.6290864944458008,0.9333993196487428,0.4170949459075928
480,7.748757080078125,0.4227828979492187,1.087647795677185,-0.128389224
481,7.764564941,0.7749929428100586,1.101567268371582,-0.781532526
482,7.780434082,2.017398834228516,0.6236766576766968,-0.729943156
483,7.796242188,3.3555564880371094,0.4217008352279663,-0.217449024
484,7.81202002,3.652709007263184,0.2958066463470459,-0.365051776
485,7.827919677734375,3.929745674133301,0.7650457620620728,0.158391997
486,7.843758056640625,4.058952331542969,0.695107102,0.4721414446830749
487,7.85959668,3.970083236694336,0.6780344247817993,0.1724969148635864
488,7.875374267578125,4.222381591796875,0.1563423871994018,-0.902923822
489,7.891182617,4.461512565612793,-0.2969926,-1.054504514
490,7.907082275390625,4.961325645446777,-1.272019863,-1.066665173
491,7.922859863,5.393111228942871,-1.552678585,0.088412583
492,7.938667724609375,4.511029243469238,-1.565506101,0.8850083351135254
493,7.954506591796875,2.112473487854004,-1.427564502,1.209321141242981
494,7.970344970703125,-0.062498093,-1.302315593,0.917155385
495,7.986214111328125,-1.435475349,-1.213505387,0.4703304469585418
496,8.002022461,-2.224842072,-1.147663355,0.1489689350128173
497,8.017922119140625,-2.608650684,-1.180648446,-0.043089829
498,8.03372998,-2.431580544,-1.185397506,0.077940032
499,8.049538330078125,-2.215705872,-1.307549715,0.3156057298183441
500,8.065437988,-2.263804436,-1.164370418,1.0266668796539309
501,8.081245849609376,-2.595044613,-1.039715409,1.4057012796401978
502,8.097115234,-3.504588604,-0.869620025,0.9457929134368896
503,8.112953613,-4.063658237,-0.671247423,0.5143072009086609
504,8.128731445,-4.159622192,-0.532655597,0.2792356014251709
505,8.144631103515625,-3.774144173,-0.368069589,0.4039945006370544
506,8.160438965,-3.442475796,-0.355360627,0.7586342096328735
507,8.176338623046876,-3.589179516,-0.162735343,0.8548375964164734
508,8.192146973,-3.173582554,-0.026547074,0.6087551712989807
509,8.207954833984376,-2.067229271,0.226476789,0.1681085228919983
510,8.223762939453126,-0.078644753,0.3688734769821167,0.1897326707839965
511,8.239479492,0.9809303283691406,0.4483247995376587,0.9460462927818298
512,8.255379150390626,1.4114294052124023,0.4737422466278076,1.4490340948104858
513,8.271218017578125,1.9705696105957031,0.5257667303085327,1.3698784112930298
514,8.287087158203125,2.127915382385254,0.6455349922180176,0.8675549030303955
515,8.302986816,1.983119010925293,0.656980038,0.1384194642305374
516,8.318825195,2.139306068,0.3992384672164917,-0.607417583
517,8.334694336,2.8902740478515625,0.1360703706741333,-1.416624308
518,8.350533203,3.4635019302368164,-0.064728618,-1.452018976
519,8.366341064453126,3.2323102951049805,-0.508084297,-1.052182674
520,8.382210205078126,2.9657888412475586,-0.504449487,-0.499200344
521,8.398018310546876,2.9377670288085938,-0.841808736,-0.691114843
522,8.413917969,3.1113710403442383,-1.414113879,-1.029824972
523,8.429787109,3.3648462295532227,-1.694897532,-1.089939237
524,8.445564697265626,3.0663633346557617,-1.893433571,-1.220842361
525,8.461433837890626,2.3890256881713867,-1.863279223,-1.342798233
526,8.477150391,1.4746932983398438,-1.704169154,-1.324313283
527,8.493080566,0.2242507934570312,-1.342685342,-1.351608515
528,8.508919189453126,-0.907813072,-1.032337666,-1.473610759
529,8.524758056640625,-1.470945358,-0.766707838,-1.702655911
530,8.540596435546876,-1.73866415,-0.766346097,-1.83435905
531,8.556404785,-1.596747398,-0.784986019,-1.804137826
532,8.572273681640626,-1.441069603,-0.909560323,-1.311635971
533,8.588051513671875,-1.71163559,-0.940401316,-0.592486024
534,8.603829102,-2.028473854,-0.904769182,0.047602415
535,8.619728759765625,-2.331055164,-0.728408098,0.4269199967384338
536,8.635506103515626,-2.635685921,-0.402311146,0.052294254
537,8.651283691,-3.220113277,-0.102001607,-0.460562021
538,8.667092041015625,-3.954107285,0.1542341709136963,-0.857170343
539,8.682930419921876,-4.599542618,0.3805874586105346,-0.729446054
540,8.698799560546876,-4.734819889,0.5532140731811523,-0.474094659
541,8.71460791,-3.789951324,0.7357567548751831,-0.217362344
542,8.730446289,-1.807512283,0.8450567722320557,-0.077949822
543,8.74631543,-0.09036541,0.87713623,0.021257877
544,8.762123535,0.9782018661499025,0.8621268272399902,-0.180317461
545,8.777962158203126,2.082725524902344,0.9008166790008544,-0.307621002
546,8.793739746,2.674290657043457,0.7797602415084839,0.050289392
547,8.809669922,2.573694229125977,0.7289438247680664,0.8477470874786377
548,8.825508544921876,1.525435447692871,0.6802988052368164,0.5097837448120117
549,8.841347412109375,1.568887710571289,0.3186737298965454,-0.613322377
550,8.857185791015626,3.491168975830078,0.2457200288772583,-0.634391427
551,8.872994141,5.573434829711914,0.6945481300354004,-0.029314101
552,8.888893798828125,6.388101577758789,1.0251131057739258,-0.261192977
553,8.90470166,5.2406768798828125,1.4007858037948608,-1.025155425
554,8.920510009765625,2.976373672485352,1.0998576879501345,-1.61540401
555,8.936409668,2.016572952270508,0.4257217645645141,-1.806270719
556,8.952217529296876,2.604857444763184,-0.44493866,-1.088033319
557,8.968056396484375,2.724553108215332,-1.217855453,0.2099522352218628
558,8.983925537109375,1.7204084396362305,-1.643156528,1.2040719985961914
559,8.999733398,0.551844597,-1.816103935,1.6757798194885254
560,9.015602783203123,-0.39983654,-1.78373313,1.6460715532302856
561,9.031441162109376,-0.914532661,-1.87925446,1.4654762744903564
562,9.04734082,-0.956869125,-1.791574478,0.8885596394538879
563,9.063149169921877,-0.943021774,-1.675995111,0.1919695138931274
564,9.078957031,-1.326242447,-1.563662291,-0.224317431
565,9.094795654296876,-1.821596622,-1.365993142,-0.301386952
566,9.110603759765626,-2.434938908,-1.147642255,-0.307863533
567,9.126503418,-2.925549984,-0.911700249,-0.474438608
568,9.142311767578123,-3.426026344,-0.777751863,-0.78063637
569,9.158089111328126,-3.647445202,-0.528253019,-0.877002001
570,9.173958496,-3.858540058,-0.453516722,-0.903955638
571,9.189796875,-4.003070831,-0.261111617,-0.521161854
572,9.205574707,-4.246334076,-0.129375339,-0.427191496
573,9.221382568359376,-4.085925579,0.3133865594863891,-0.740708172
574,9.237160156,-3.668169022,0.7314772605895996,-0.930360794
575,9.253029297,-2.780020237,1.046236515045166,-0.859560251
576,9.268806884765626,-1.902167797,1.2425589561462402,-0.326110989
577,9.284645751953123,-0.721482277,1.295919418334961,0.1122496128082275
578,9.300545166015626,0.940326691,1.270890235900879,0.3251366019248962
579,9.316384033203123,2.343358039855957,1.1225624084472656,0.6941584348678589
580,9.332222412109376,3.1310129165649414,0.9919512271881104,1.555023193359375
581,9.348030762,3.4485998153686523,0.7240815162658691,1.5834524631500244
582,9.363869141,3.580199241638184,0.4762736558914184,0.8737818002700806
583,9.379708008,3.577598571777344,0.082462668,0.059661925
584,9.395485352,3.7481822967529297,0.1287872791290283,-0.499694169
585,9.411385009765626,3.752676963806152,-0.092814088,0.025298476
586,9.427223876953123,3.622821807861328,-0.287750483,0.6195396184921265
587,9.443093017578123,3.6234359741210938,-0.779804349,0.044514239
588,9.458900879,4.818265914916992,-1.20351398,-1.179052114
589,9.474708984,5.849485397338867,-1.903020501,-2.198513746
590,9.490639404296877,5.995545387268066,-2.372918129,-2.335170507
591,9.506416992,4.440952301025391,-2.158799648,-1.368340969
592,9.522286133,1.6116409301757812,-1.899416804,-0.479115784
593,9.538124512,-1.357510567,-1.755555153,-0.039640039
594,9.553932861328123,-3.393054485,-1.436900139,-0.668919206
595,9.569801758,-3.800632954,-1.222174168,-1.687880516
596,9.585640380859376,-3.385814667,-1.132034063,-2.026325464
597,9.601540039,-3.079768181,-1.109155416,-1.709097147
598,9.617348388671877,-2.303039074,-0.99261111,-0.58669591
599,9.633125977,-1.583521843,-0.659088135,0.6262229084968567
600,9.648933837890626,-1.38758564,-0.329459518,1.0371840000152588
601,9.664772705078123,-2.242997169,-0.001508057,0.532747746
602,9.680641845703123,-2.964254856,0.2389392852783203,-0.041867316
603,9.696480224609376,-3.955566406,0.2865124344825744,-0.388644814
604,9.712319091796877,-4.594991684,0.3743244409561157,-0.350389004
605,9.728157470703126,-5.004718781,0.6150926351547241,-0.12384671
606,9.743965576171876,-4.831539631,0.5129105448722839,0.1224620938301086
607,9.759804443359377,-3.63173151,0.4726195335388183,0.1403893232345581
608,9.775612305,-1.551918983,0.5845087170600891,0.028901577
609,9.79142041,-0.041500092,0.6670325398445129,0.308798075
610,9.807320068359376,0.8396387100219727,0.8109089136123657,0.1846857070922851
611,9.823067138671876,0.965515137,1.1579692363739014,-0.081717014
612,9.838936279296876,1.7876806259155271,1.0949532985687256,0.111208439
613,9.854775146484377,2.9405879974365234,0.68564558,0.2633706331253052
614,9.870644287109377,3.7909164428710938,0.2871017456054687,0.066610098
615,9.886482666015626,4.092562675476074,-0.376543164,-0.124728084
616,9.902321289,4.612583160400391,-0.668423891,0.2217887639999389
617,9.918190673828123,5.664423942565918,-0.405311108,0.3889880180358886
618,9.934059814453123,6.237564086914063,-0.030909419,0.6270097494125366
619,9.949837402,5.1382598876953125,0.016978264,0.1599940061569214
620,9.965706543,3.5813121795654297,-0.421334982,0.042767286
621,9.981514404296876,2.911036491394043,-0.989097118,0.3412497043609619
622,9.997383789,2.822585105895996,-1.395113111,0.5080307722091675
623,10.013191650390626,1.8529081344604488,-1.828812718,1.1870343685150146
624,10.02896923828125,0.4222383499145508,-2.281465292,1.6459596157073977
625,10.044807861328126,-0.51054287,-2.389971733,1.377337933
626,10.060646728515623,-0.977898598,-2.217036963,0.94724679
627,10.076424072265626,-1.588474751,-2.079038858,0.7048813104629517
628,10.092232177734376,-1.8547225,-1.901897311,0.2888983488082886
629,10.10807080078125,-1.778175831,-1.632121444,-0.288069546
630,10.123940185546877,-1.915766716,-1.35163784,-0.830192029
631,10.13974805,-1.635288239,-0.999077678,-1.311141849
632,10.15558691,-1.292847633,-0.779408336,-1.281964302
633,10.171394775390626,-1.476989746,-0.585162997,-1.299615622
634,10.18720313,-2.030256271,-0.397078037,-1.282763481
635,10.20304150390625,-3.165585041,-0.283344626,-1.192638755
636,10.21878857421875,-4.148851395,-0.336702466,-1.20178926
637,10.234688232421876,-4.395414829,-0.282035708,-1.181570411
638,10.25049658203125,-3.922142982,-0.332812309,-0.791603267
639,10.26633496,-4.092901707,-0.314539552,-0.484322608
640,10.2822041,-4.554668903,-0.22241652,-0.206200898
641,10.29804297,-4.541465282,-0.335377097,-0.465461999
642,10.31391211,-1.602241516,-0.20774436,-0.474523753
643,10.329781005859376,1.8222198486328125,0.093597889,0.042904556
644,10.34558935546875,3.472865104675293,0.3988285064697265,1.056673526763916
645,10.361519287109376,3.326235771179199,0.7629858255386353,1.3656253814697266
646,10.37736083984375,2.6818408966064453,1.0553278923034668,1.1237189769744873
647,10.39319970703125,2.372981071472168,0.9851235151290894,1.076451063156128
648,10.409038330078126,2.914512634277344,0.6880909204483032,0.8653530478477478
649,10.424876708984376,3.871546745300293,0.3108142614364624,0.7160664796829224
650,10.44077637,5.181064605712891,0.2835175991058349,0.8885111808776855
651,10.456584716796876,5.259498596191406,0.039559007,1.1874403953552246
652,10.472514892578126,4.287110328674316,-0.307727456,0.7323157787322998
653,10.488292236328125,2.550512313842773,-1.256802201,-0.894170165
654,10.504100341796876,2.272587776184082,-2.293763399,-2.280900955
655,10.520000244140626,3.4946365356445312,-2.945087433,-1.799145937
656,10.535838623046876,4.684748649597168,-3.844464779,-1.114983797
657,10.55173828,4.429622650146484,-3.457750797,-0.05147469
658,10.56757715,1.9728507995605469,-3.026300907,-0.028667808
659,10.58341552734375,-0.92700386,-2.542236328,-0.540123463
660,10.599254150390625,-3.361675739,-2.022801638,-1.371658444
661,10.615062255859376,-4.039840221,-1.661089897,-1.934933066
662,10.630931396484376,-3.719510078,-1.65111196,-1.889616966
663,10.646770263671876,-3.031475067,-1.666152954,-1.506712675
664,10.662639404296876,-2.024564743,-1.506269217,-0.898348868
665,10.678508544921876,-1.499594688,-1.094136357,-0.325198978
666,10.694316650390626,-1.627329826,-0.669674754,-0.555127501
667,10.71015527,-1.964447498,-0.25811398,-1.401339054
668,10.72590234,-2.297842979,0.058792889,-2.070040226
669,10.74174072265625,-2.674280643,0.042007565,-1.566873312
670,10.75748779296875,-3.391549587,-0.138504982,-0.972051263
671,10.773265380859376,-3.848017216,-0.211411119,-0.12817955
672,10.78916504,-3.814398766,-0.377222061,0.3039268255233764
673,10.804973388671876,-2.68693161,-0.36205554,0.394057035
674,10.82078125,-1.339327812,-0.232516527,0.388643742
675,10.83662012,-0.96172905,0.1072509884834289,0.3954086303710937
676,10.85239746,-0.825048447,0.4192327260971069,-0.027622461
677,10.868297119140625,-0.019591331,0.9272452592849731,-0.742809296
678,10.88416650390625,0.5751867294311523,1.2748934030532837,-0.918557465
679,10.89994384765625,2.0338382720947266,0.9885013103485109,0.1834393739700317
680,10.91578271484375,2.419432640075684,0.6470729112625122,0.8158328533172607
681,10.931560302734376,2.4789390563964844,0.038268328,0.1954244375228881
682,10.94745996,3.313545227050781,-0.544084728,-0.640071571
683,10.963298583984376,4.756222724914551,-0.565614104,-0.427119792
684,10.979136962890625,5.550726890563965,-0.235139549,0.4046636819839477
685,10.995006103515625,4.592987060546875,0.2542514204978943,0.8576984405517578
686,11.010844970703126,3.432734489440918,0.2765036225318908,-0.169755936
687,11.02674462890625,3.2181215286254883,-0.144311011,-0.922409356
688,11.042552490234376,3.6785717010498047,-0.96810019,-1.1236552
689,11.058391357421876,3.801192283630371,-1.919958591,-0.536391318
690,11.074260498046876,4.051476479,-2.740421295,0.5142015218734741
691,11.09006836,3.602447509765625,-3.067315102,1.476175308227539
692,11.105968017578125,2.279200553894043,-3.157592773,1.4630833864212036
693,11.12177637,1.0168609619140625,-2.82912302,1.1518323421478271
694,11.137553955078126,-0.133291245,-2.427644491,0.4206274747848511
695,11.15345361328125,-1.665389061,-1.859469414,-0.408351779
696,11.169231201171876,-3.256245613,-1.583845139,-0.722372651
697,11.18506982421875,-3.855546474,-1.294840097,-0.645798028
698,11.20087793,-3.134548187,-1.050143719,-0.392497957
699,11.216685791015625,-2.219378471,-0.907966197,-0.331222177
700,11.23258544921875,-1.931792259,-0.598245025,-0.880697548
701,11.248393798828126,-2.629004478,-0.389406025,-1.277463198
702,11.264262939453126,-3.619571686,-0.309055805,-1.350006938
703,11.280101318359376,-4.249813557,-0.343355983,-0.920029521
704,11.295940185546876,-4.263648987,-0.389125347,-0.491803825
705,11.31183984,-4.603034973,-0.252678931,-0.363581598
706,11.32761719,-4.960670948,0.017383754,-0.153679788
707,11.34354736328125,-5.135659695,0.3352749347686767,0.4651601314544678
708,11.359477783203126,-5.005423069,0.2984721660614013,0.4466190338134765
709,11.37528564453125,-1.389072418,0.192589521,0.2352935671806335
710,11.391155029296876,3.4052906036376958,0.1407896280288696,0.4400521516799927
711,11.406932373046876,5.341727256774902,0.2176179885864257,1.193932056427002
712,11.42280176,4.941629409790039,0.4807459712028503,1.888516306877136
713,11.4386709,3.801617622375488,0.8643075227737427,1.3949469327926636
714,11.45450927734375,2.7437944412231445,1.1087702512741089,0.7861642837524414
715,11.47037841796875,2.715343475341797,1.079417109489441,-0.689972639
716,11.486156005859376,3.4892654418945312,0.7631527185440063,-1.526094556
717,11.501994873046876,4.653121948242188,0.3394784927368164,-0.820982218
718,11.51780273,5.281624794006348,0.1030383110046386,-0.096218497
719,11.53358056640625,5.199093818664551,-0.078451633,-0.080630422
720,11.549480224609376,3.2482309341430664,-0.481774688,-0.715010524
721,11.56528809,1.4092588424682615,-1.172971487,-1.362554312
722,11.581096435546876,1.2651166915893557,-1.759512424,-1.412055016
723,11.596934814453125,2.122519493103028,-2.503431082,-1.022215247
724,11.612773681640626,3.1245250701904297,-3.109525681,-0.639062643
725,11.628642822265626,3.159252166748047,-3.213881969,-0.315207243
726,11.644450927734376,1.6037559509277344,-2.897327423,-0.430312157
727,11.660320068359376,-1.153429985,-2.425681353,-0.983268917
728,11.67612793,-3.443640709,-1.895520568,-1.533099174
729,11.691936279296876,-4.555411339,-1.734897971,-2.064123392
730,11.70774414,-4.312560558,-1.568369746,-1.727502108
731,11.723521728515625,-2.814678669,-1.382751584,-1.134807348
732,11.739360595703126,-1.256299973,-1.206481457,-0.277998477
733,11.755229736328126,-0.107870102,-0.954647601,0.3058897852897644
734,11.77103759765625,-1.244808197,-0.658229053,0.056703448
735,11.78696777,-2.992815971,-0.423805892,-0.830444098
736,11.802776123046876,-4.805269718,-0.326744318,-0.886531353
737,11.81867578,-5.658495426,-0.411067486,-0.419351965
738,11.83451416015625,-5.745927334,-0.313159585,0.2139524221420288
739,11.850322509765626,-5.754594326,-0.250226021,0.793970525
740,11.86622216796875,-4.83472538,-0.023463011,0.9637303948402404
741,11.88199951171875,-3.810533047,0.055586219,0.027191877
742,11.897899169921876,-0.634013176,0.054924011,-0.7660743
743,11.91370751953125,1.3745698928833008,0.2335833311080932,-0.694058001
744,11.92951563,1.4688405990600586,0.297844648,0.014920831
745,11.945354248046876,0.3128232955932617,0.5571539402008057,0.5973862409591675
746,11.961162353515626,0.4223604202270508,0.7270164489746094,0.5045014023780823
747,11.977031494140626,2.258530616760254,0.428024411,0.018401623
748,11.99283935546875,3.953415870666504,-0.202415109,-0.607006133
749,12.008616943359376,5.492362976074219,-0.495196998,-1.38993001
750,12.02445556640625,6.765135765075684,-0.078248858,-1.396077275
751,12.04026367,6.386621475219727,0.8947598934173584,-1.697383881
752,12.056102294921876,3.411995887756348,1.6012606620788574,-2.366334677
753,12.071941162109376,1.0858192443847656,1.3476802110671997,-1.733203888
754,12.08774902,1.5485553741455078,0.2722682952880859,-1.151982784
755,12.103648681640625,4.075794219970703,-1.097592473,-0.916820049
756,12.119395751953125,6.133270263671875,-2.451286316,0.1966913342475891
757,12.13526513671875,6.245321273803711,-3.275320053,2.471497774124145
758,12.151103759765626,4.755280494689941,-3.542836189,3.2942395210266118
759,12.166911865234376,1.7117671966552734,-3.379104853,2.982529163360596
760,12.182658935546876,-0.532061577,-2.990577698,2.0044164657592773
761,12.19849755859375,-1.664833069,-2.584972382,1.2483330965042114
762,12.214397216796876,-1.694058418,-2.206703901,0.634212077
763,12.23020508,-1.339085579,-2.012700796,0.4063891172409057
764,12.246013427734376,-0.866444588,-1.758593559,0.3704622387886047
765,12.261851806640625,-0.899775505,-1.307137132,-0.157091379
766,12.27766016,-1.633246422,-0.968275249,-0.448355973
767,12.29349853515625,-2.619364262,-0.532266378,-0.340213716
768,12.30933740234375,-4.088849545,-0.278456748,-0.106904984
769,12.325145263671876,-5.23667717,-0.180304348,-0.388800025
770,12.34095361328125,-5.868189812,-0.149505734,-1.054780602
771,12.35670068359375,-4.766757011,-0.385062516,-1.434523344
772,12.37266113,-2.649867058,-0.324082494,-1.053542137
773,12.38846923828125,-2.997874737,-0.326726377,-0.246286482
774,12.404307861328125,-4.29390192,-0.249974966,0.5897119045257568
775,12.42020751953125,-5.271080971,-0.113125801,0.3834576606750488
776,12.43604638671875,-3.863125324,0.3755600452423095,0.1015010476112365
777,12.45191552734375,-0.168346405,0.6488332748413086,-0.009895444
778,12.46775391,1.8789262771606443,0.7781243324279785,0.3615676760673523
779,12.483562255859376,2.960256576538086,0.939698339,1.2447726726531982
780,12.49943115234375,3.819340705871582,1.092760682106018,1.662809968
781,12.515239501953126,3.996319770812988,1.3037410974502563,1.4597012996673584
782,12.53116943359375,3.5931358337402344,1.3444279432296753,0.670700192
783,12.546947021484376,3.395832061767578,1.392490267753601,-0.050094932
784,12.562785888671876,4.138675689697266,1.3531845808029177,-0.697345257
785,12.578655029296876,4.744371414,1.3788386583328247,-0.799813449
786,12.59443262,4.771945953369141,0.9460206031799316,-1.156123877
787,12.610271240234376,4.635678291320801,-0.238987327,-2.618424416
788,12.626079345703126,4.815588951,-1.62434864,-2.79501915
789,12.64188720703125,5.387324333190918,-3.067043304,-1.031852841
790,12.657725830078125,5.665807723999023,-3.805575371,0.5928345918655396
791,12.673533935546876,3.4937658309936523,-3.826342106,0.7973066568374634
792,12.68943359,0.7738742828369141,-3.252933502,-0.291891873
793,12.705272216796876,-2.274636269,-2.5426476,-1.741111279
794,12.72108056640625,-4.340715885,-2.108706713,-2.139103889
795,12.736949462890625,-4.654948711,-1.912433624,-1.810497522
796,12.75275781,-3.930956841,-1.73514986,-1.19965899
797,12.768657470703126,-2.50466013,-1.695207357,-0.64660424
798,12.784526611328126,-0.763012886,-1.439033389,-0.12150532
799,12.800364990234376,-0.405816078,-1.209531069,-0.132160723
800,12.81629541015625,-0.691218376,-0.740044117,-0.596399248
801,12.83213379,-2.077861309,-0.424988925,-0.939555228
802,12.848003173828126,-4.004937649,-0.128768206,-0.690073907
803,12.863780517578125,-5.386385441,-0.091768861,-0.396320105
804,12.87958887,-5.43977499,-0.15952158,-0.36147958
805,12.895457763671876,-4.859447002,-0.365181208,-0.119971901
806,12.911296630859376,-4.063466549,-0.477654338,0.033708215
807,12.927196044921876,-2.775270462,-0.253288507,-0.110411227
808,12.943004150390625,-2.398826122,0.1765339374542236,-0.45011884
809,12.958751220703125,-1.78384161,0.7139419317245483,-1.051157475
810,12.97468164,-2.035505295,0.9598056077957152,-1.447864532
811,12.990459228515626,-1.047698975,1.3036229610443115,-1.261538863
812,13.006328369140626,0.5826845169067383,1.1341631412506104,-0.889049172
813,13.022166748046876,3.2762250900268555,0.6720072031021118,0.099075258
814,13.038005615234376,5.452199935913086,-0.084914923,0.9184962511062622
815,13.053874755859376,6.043066024780273,-0.53458941,1.2384850978851318
816,13.069713134765625,6.887126922607422,-0.578039706,0.6733977794647217
817,13.085582275390625,8.054780006408691,0.282321572,0.6544796228408813
818,13.101421142578126,7.707685470581055,1.6276706457138062,1.5831011533737185
819,13.11722900390625,4.802552223205566,2.410549164,0.0448457
820,13.133159423828126,1.2187433242797852,2.016453742980957,-2.707992554
821,13.14893701171875,0.5322504043579102,0.2714607715606689,-2.710496426
822,13.16477539,2.2185211181640625,-1.63049531,-0.519708097
823,13.18061426,3.4983673095703125,-3.346566677,2.0317041873931885
824,13.1963916,3.607157707214356,-3.910008907,3.3754382133483887
825,13.21226074,2.253141403198242,-4.042432308,2.9697153568267822
826,13.228038330078125,0.457127571,-3.58876276,1.953369141
827,13.243907470703125,-1.822555065,-3.07456255,1.0210176706314087
828,13.259746337890626,-2.656932354,-2.525228739,0.8441238403320312
829,13.27555419921875,-2.47241354,-1.973325253,0.4787877798080444
830,13.291423583984376,-1.732345581,-1.352644682,-0.273245096
831,13.307200927734376,-1.350273132,-0.908229053,-1.03433764
832,13.32310059,-1.765700817,-0.68007201,-1.391508579
833,13.338908935546876,-2.837226391,-0.578673244,-1.333122849
834,13.35480859,-4.214415073,-0.698323727,-0.850609243
835,13.370708251953126,-4.889407158,-0.767421842,-0.311493516
836,13.386455322265626,-4.452789307,-0.665548682,0.3618813753128052
837,13.40232422,-4.272767067,-0.589055061,0.6654597520828247
838,13.418162841796876,-4.529324055,-0.419108152,0.687995434
839,13.43397119140625,-5.268405914,-0.091537476,0.4042887687683105
840,13.449870849609376,-5.669751167,0.3157203197479248,-0.002018571
841,13.465709228515625,-5.184430122,0.2770648002624511,-0.279027104
842,13.48157861328125,-2.556362629,0.2252396345138549,-0.371673197
843,13.497417236328126,1.1443157196044922,0.2941529750823974,-0.144567013
844,13.51322509765625,3.5573959350585938,0.4129590988159179,0.9403274655342102
845,13.529124755859376,4.300599098205566,0.8176748156547546,1.5200175046920776
846,13.54490234,4.147843360900879,1.133434772491455,0.8902835249900818
847,13.56068017578125,4.211106300354004,1.489236593,-0.691129982
848,13.57648828,4.656885147094727,1.5446934700012207,-1.244930029
849,13.592296142578125,5.404026031494141,1.1644444465637207,-0.96522665
850,13.60819580078125,6.858700752258301,0.6499266624450684,-0.532353997
851,13.62397363,7.4482269287109375,0.3787393569946289,-0.38957119
852,13.639842529296876,6.226431846618652,0.1126661300659179,-0.720672309
853,13.655681396484376,3.602013588,-0.224448681,-1.606560707
854,13.67152001953125,1.090205192565918,-1.174405813,-2.530437469
855,13.6873584,0.4452390670776367,-2.275985718,-2.120147467
856,13.703135986328125,0.4363203048706054,-3.181115627,-1.403347492
857,13.71906641,1.1767940521240234,-3.940756798,-0.338473141
858,13.73493555,1.8638486862182615,-3.812149048,-0.084212184
859,13.750713134765626,1.3275747299194336,-3.203195333,-0.830681682
860,13.766551513671876,-0.551620483,-2.32874155,-1.352087259
861,13.782603759765625,-2.582339764,-1.615577698,-1.68971014
862,13.798472900390625,-3.648993015,-1.397014141,-1.402727365
863,13.814311767578126,-3.421667576,-1.070137739,-1.267319679
864,13.83011962890625,-3.142362595,-1.003747821,-0.868226707
865,13.84598876953125,-1.751665115,-0.760382414,0.09249413
866,13.86182763671875,-0.544464111,-0.616151214,0.6075276136398315
867,13.877727294921876,-0.417676926,-0.308118939,0.2848062515258789
868,13.89353516,-1.773220062,-0.087310195,-0.185740948
869,13.909343505859376,-3.376642227,-0.001206577,-0.350197434
870,13.925181884765625,-5.290050983,-0.088760257,-0.492774069
871,13.941020751953126,-6.051673889,-0.179595053,-0.278684735
872,13.95692041015625,-6.074302673,-0.344408929,0.039307356
873,13.972759033203126,-5.811844826,-0.38912642,-0.055792212
874,13.98853662109375,-4.472388268,-0.257269681,-0.20205009
875,14.00440576171875,-2.067955971,-0.089330196,-0.539393425
876,14.02021387,0.719965935,0.1880805492401123,-0.799240112
877,14.03608301,2.9796743392944336,0.5373060703277588,-0.775745392
878,14.05192138671875,3.4702224731445312,0.9734702110290528,-0.025502205
879,14.06766845703125,2.558818817138672,1.1546852588653564,0.2463676929473877
880,14.083568115234376,1.8066043853759768,0.8564485311508179,-0.228934288
881,14.099345947265626,3.182580947875977,0.087715507,-0.997180521
882,14.11524560546875,6.289394378662109,-0.495235443,-1.112782121
883,14.131053466796876,9.130536079406738,0.087947965,-0.089563131
884,14.14692285,8.662824630737305,1.2142837047576904,-0.221893311
885,14.16279199,4.958688735961914,1.9839212894439695,-1.453938127
886,14.17853906,1.1745233535766602,1.771365761756897,-2.105701208
887,14.19446923828125,-0.158666611,0.2948310375213623,-1.412517667
888,14.21024658203125,0.9588127136230468,-1.738247156,0.2752361297607422
889,14.22608544921875,2.110933303833008,-3.853690147,2.811173677444458
890,14.241893310546876,3.70904541,-4.463121414,5.145030975341797
891,14.25770166015625,3.4223852157592773,-4.586516857,5.067322731018066
892,14.273692626953125,2.0336809158325195,-4.164204597,3.6051275730133057
893,14.28950098,0.085165977,-3.187740088,2.152629137039185
894,14.305278564453126,-2.015038967,-2.199216843,0.6912121772766113
895,14.321147705078126,-3.174880505,-1.239609718,-1.533238769
896,14.33692529296875,-3.069285393,-0.521656096,-2.825668573
897,14.352824951171876,-2.093048573,-0.245061815,-3.230006695
898,14.36863281,-1.09658432,-0.17372942,-3.214099169
899,14.384441162109376,-1.078720093,-0.280302227,-2.77917695
900,14.400310302734376,-1.584039688,-0.36737597,-2.045823574
901,14.41611816,-2.327830791,-0.500875831,-1.752133489
902,14.4320791,-3.575221539,-0.426025748,-2.003307343
903,14.447856689453126,-4.749836445,-0.324456275,-1.70783174
904,14.463725830078126,-6.084094048,-0.096067786,-1.055665255
905,14.47962548828125,-6.939949989,0.036403537,-0.700749993
906,14.495525146484376,-6.992274284,0.2075272798538208,-0.254837751
907,14.5114248,-6.269207954,0.2265335321426391,-0.176261902
908,14.52726318359375,-4.046458244,0.2845298051834106,0.2887784242630005
909,14.54310205078125,-1.022502899,-0.010440469,0.3639569282531738
910,14.559001708984376,2.749008178710937,0.057054758,0.6181498169898987
911,14.57484033203125,4.581393241882324,0.287312388,1.2921305894851685
912,14.590617919921876,4.5303802490234375,0.4602081775665283,1.530876874923706
913,14.60642578,4.289481163024902,0.8407204151153564,1.0873732566833496
914,14.62226465,4.380347252,0.9779633283615112,0.053619981
915,14.63810302734375,5.459039688110352,1.0411770343780518,-1.219763994
916,14.653911376953126,7.216753959655762,1.0079624652862549,-1.788892627
917,14.66981103515625,7.825594902038574,1.1525628566741943,-1.682240844
918,14.68558837890625,6.576744079589844,0.7337526082992554,-1.426199913
919,14.701457763671876,4.310836791992188,0.233536959,-1.371970892
920,14.717326904296876,1.549910545349121,-0.753723145,-2.299385786
921,14.73310449,0.9372425079345704,-1.872680664,-2.014211893
922,14.748943115234376,1.591935157775879,-2.891533375,-1.21126771
923,14.7647207,1.3444461822509766,-3.592978239,-0.531271577
924,14.780620361328126,0.8261518478393555,-3.548320055,-0.338440359
925,14.796489501953126,-0.076935768,-2.977419853,-0.338615
926,14.81229736328125,-1.743417263,-2.017457962,-1.136407971
927,14.828166748046876,-3.359698772,-1.372412682,-1.817814708
928,14.84400537109375,-4.440642357,-1.363691807,-1.827780962
929,14.85981348,-4.051897049,-1.427174211,-1.43376708
930,14.87568262,-2.268377781,-1.636998177,-0.533066809
931,14.891490478515625,0.1767854690551757,-1.574385762,0.2392878532409668
932,14.90735986328125,0.6294088363647461,-1.323050261,0.6744400262832642
933,14.923198486328126,-0.714985847,-0.952147543,0.691643238
934,14.939036865234376,-2.595844269,-0.64280045,0.5190882682800293
935,14.95493652,-3.969285488,-0.568406284,0.2116854786872863
936,14.970744873046876,-4.599987984,-0.635488153,0.2845679521560669
937,14.98664453,-3.978209972,-0.725224197,1.0448282957077026
938,15.002422119140626,-2.83713007,-0.674674034,1.624076008796692
939,15.018291259765626,-2.681697369,-0.479717374,1.237018585205078
940,15.03419091796875,-3.497887135,-0.082726121,0.084913075
941,15.049998779296876,-4.138405323,0.3813889026641845,-1.139086723
942,15.065867919921876,-2.385266781,0.4902408123016357,-0.677359343
943,15.081706787109376,0.4855413436889648,0.5660239458084106,0.3050456047058105
944,15.097545166015625,2.882828712463379,0.7200577259063721,0.5174144506454468
945,15.11347559,3.458376884460449,0.7296704053878784,0.1198439598083496
946,15.12928369140625,2.4876937866210938,0.6545670032501221,-0.362085938
947,15.145183349609376,2.293344497680664,0.5313633680343628,-1.887245893
948,15.16102197265625,3.4963064193725586,0.2501472234725952,-2.300909996
949,15.17686035,6.320876121520996,0.3663061857223511,-1.41496861
950,15.19272949,8.356122016906738,1.0258049964904783,-0.232895732
951,15.208537841796876,7.565452575683594,2.0825343132019043,0.3097094297409057
952,15.2244375,3.963979721069336,2.1202216148376465,-0.731810331
953,15.24024560546875,2.069727897644043,1.0332345962524414,-0.712612152
954,15.256053466796876,3.0283355712890625,-0.519625306,-0.172305107
955,15.271922607421876,2.9751148223876958,-1.775561571,1.1261175870895386
956,15.28782227,1.1199665069580078,-2.630688667,2.890432357788086
957,15.30375244140625,-0.306347847,-3.203325272,3.952343463897705
958,15.31962158203125,-1.039670944,-3.48149538,4.169701099395752
959,15.335429931640626,-1.180026054,-3.508583307,3.831848621368408
960,15.351360107421876,-1.495083809,-3.402387142,2.712389707565308
961,15.367137451171876,-1.7374053,-3.287235737,1.3536620140075684
962,15.38300684,-1.549019814,-2.986831188,4.08291816711e-05
963,15.398845458984376,-0.999025345,-2.450327396,-1.066303611
964,15.41465332,-0.622371674,-1.548435926,-1.885028005
965,15.430552978515625,-1.09502697,-0.695135236,-1.88149631
966,15.446391845703126,-1.861364841,-0.189893901,-1.798665524
967,15.46221387,-2.483782768,0.047647417,-1.986832619
968,15.47805224609375,-2.976675987,0.1422414779663086,-2.427104235
969,15.493921630859376,-3.760510921,0.1981735229492187,-2.735851049
970,15.509790771484376,-4.48712635,0.1187937259674072,-2.324833632
971,15.52559863,-4.289453983,0.083525181,-1.199981928
972,15.541498291015625,-4.642334938,-0.055874825,-0.019636795
973,15.55730664,-4.344105721,-0.105974078,0.9301174283027648
974,15.57317578,-4.271512985,-0.251650453,1.1966445446014404
975,15.589044677734377,-2.292730331,-0.158053875,1.5296595096588137
976,15.604791748046877,0.9649944305419922,-0.063352823,1.822735071182251
977,15.620660888671877,3.785532951354981,0.080389023,1.2580525875091553
978,15.63646923828125,5.378399848937988,0.3705670833587646,0.3781129419803619
979,15.65227734,5.133813858032227,0.8633161783218384,0.3894408345222473
980,15.668115966796876,3.549581527709961,1.344744086265564,0.1946393251419067
981,15.68389355,2.804530143737793,1.5347133874893188,-0.967147708
982,15.699793212890626,3.471312522888184,1.2700037956237793,-2.189662933
983,15.71557080078125,5.142121315002441,1.1865020990371704,-2.248522043
984,15.731409423828126,5.581353187561035,1.0596257448196411,-1.975236654
985,15.74730908203125,4.376294136047363,0.7220934629440308,-2.073150873
986,15.763116943359377,2.7540197372436523,-0.162505269,-2.28826499
987,15.7790166,1.7178564071655271,-1.448116779,-1.864074469
988,15.79485547,1.2383975982666016,-2.64779377,-0.993495464
989,15.810663330078125,1.682424545288086,-3.300898075,0.029742405
990,15.82653271484375,2.1439123153686523,-3.419791698,0.9342623353004456
991,15.842371337890626,1.5573139190673828,-3.113806725,1.0853748321533203
992,15.85827099609375,-0.149514198,-2.349197865,0.065445699
993,15.874078857421877,-1.664008141,-1.555200219,-1.980075955
994,15.88994824,-2.670737743,-1.055359364,-2.890118122
995,15.90581738,-2.398077965,-1.079385281,-1.745589495
996,15.921594970703126,-1.671222687,-1.285805225,-0.7220276
997,15.93749462890625,-1.546003342,-1.227022767,-0.008186303
998,15.95330273,-1.650318146,-1.040149689,0.052835271
999,15.96911083984375,-1.91887188,-0.659352422,-0.263756394
1000,15.985010498046876,-2.368802547,-0.585291564,-0.403945714
1001,16.00081836,-3.211914063,-0.440711498,0.0343647
1002,16.016626708984376,-4.126723766,-0.447011113,0.3263165354728699
1003,16.03243457,-4.637368679,-0.46843791,0.3785657882690429
1004,16.048242919921876,-4.594405651,-0.44573307,0.570483923
1005,16.06411181640625,-4.655551434,-0.37385416,0.9479339718818665
1006,16.079920166015626,-3.593645573,0.023531675,-0.137866974
1007,16.09581982421875,-2.816056728,0.8172891139984131,-1.908899307
1008,16.111627685546875,-1.464900017,0.7384265661239624,-1.680626631
1009,16.12743603515625,1.0469694137573242,0.7216882705688477,-0.036560774
1010,16.143335693359376,3.087157249450684,0.5156358480453491,1.491518736
1011,16.159174072265625,3.487705231,0.7496744394302368,1.5312888622283936
1012,16.175043212890625,2.0767030715942383,0.6738995313644409,0.6933369636535645
1013,16.190882080078126,1.400712013244629,0.1953593492507934,-0.166283011
1014,16.206720458984375,3.3244762420654297,-0.437789202,-0.715215027
1015,16.222559326171876,6.221344947814941,-0.368024826,-0.377171993
1016,16.238336669921875,7.199680328369141,0.2440437078475952,-0.055435658
1017,16.25426708984375,5.961390495300293,1.4371830224990845,-0.023317575
1018,16.2700752,3.418532371520996,1.6760200262069702,-0.957178831
1019,16.285974853515626,1.3325223922729492,0.903927445,-2.028847933
1020,16.301843994140626,1.1730928421020508,-0.629628897,-1.458293557
1021,16.31765185546875,2.3213348388671875,-2.195071697,0.1132161617279052
1022,16.333521240234376,3.992092133,-3.184000015,2.4915356636047363
1023,16.349390380859376,3.934371948242188,-3.465441465,3.427564621
1024,16.365259521484376,2.5192108154296875,-3.031474113,2.1490578651428223
1025,16.381128662109376,0.2088842391967773,-2.240035772,0.2472549676895141
1026,16.39690625,-2.240651608,-1.491601706,-0.417438388
1027,16.412683837890626,-3.154046059,-1.340463638,-0.064146996
1028,16.42852246,-2.564415455,-1.201227665,-0.109517038
1029,16.444422119140626,-2.098556519,-1.101681709,-0.375873208
1030,16.46029102,-1.743960857,-1.044589758,-0.238566577
1031,16.47616016,-1.614108562,-0.947960496,-0.217781305
1032,16.492029541015626,-2.091168404,-0.722766399,-0.889376163
1033,16.507837646484376,-3.360394955,-0.557046294,-1.198724508
1034,16.52361523,-5.012276173,-0.599535227,-0.871478617
1035,16.53948438,-5.822770119,-0.864881933,-0.485878766
1036,16.555353271484375,-4.445374489,-1.047754288,0.027061164
1037,16.57125293,-2.770279884,-1.126256227,0.4505068659782409
1038,16.58712207,-2.320484638,-0.858225584,0.520868719
1039,16.602930419921876,-3.042898178,-0.367909431,0.1994256973266601
1040,16.61879931640625,-4.004694939,-0.04971242,-0.281026423
1041,16.634607666015626,-3.139178753,0.4134207963943481,-0.483493686
1042,16.65044629,-0.786603928,0.5198445320129395,-0.075737864
1043,16.666284912109376,2.6033010482788086,0.5305150747299194,1.1552026271820068
1044,16.682154052734376,4.418143272399902,0.5566357374191284,2.081094980239868
1045,16.698023193359376,4.200989723205566,0.8498423099517822,1.6640468835830688
1046,16.71383105,2.608228683,1.0700896978378296,0.2813953757286072
1047,16.729730712890625,1.622812271118164,1.0770615339279177,-1.123764277
1048,16.745569580078126,2.086997032165528,0.917722225,-1.191213727
1049,16.76134716796875,3.603356361,0.8572685718536377,0.037434749
1050,16.77721630859375,5.290487289428711,0.779093862,0.690442681
1051,16.793024169921875,5.784720420837402,0.5423647165298462,0.3230330348014831
1052,16.80892383,4.473289489746094,-0.090735316,-1.189909816
1053,16.82470166015625,3.2624549865722656,-1.251803517,-2.009791613
1054,16.84050977,3.506617546081543,-2.144526958,-1.144197226
1055,16.856348388671876,4.079503059387207,-2.745396852,-0.185352981
1056,16.872156494140626,3.734518051147461,-2.942762852,0.1022291183471679
1057,16.88808642578125,2.106553077697754,-2.727829933,-0.103021398
1058,16.903864013671875,0.2298727035522461,-2.156190872,-1.069164991
1059,16.919702880859376,-1.478399277,-1.516791105,-2.009509802
1060,16.93551074,-2.794435501,-1.010330915,-2.320183516
1061,16.95134961,-2.574089527,-0.928752422,-2.121339798
1062,16.967249267578126,-1.265603065,-1.031810999,-1.918443084
1063,16.98308789,0.2173709869384765,-1.032463908,-1.313945055
1064,16.998865478515626,1.0050535202026367,-0.999432743,-0.474141806
1065,17.01476513671875,0.1779365539550781,-0.798583925,-0.009699911
1066,17.030572998046875,-1.60696125,-0.532896459,-0.017338395
1067,17.046442138671875,-3.291464806,-0.323827982,-0.310758263
1068,17.06225048828125,-4.631475449,-0.232627511,-0.048451781
1069,17.07808887,-5.301799774,-0.269114017,0.308247447
1070,17.093958251953126,-5.688189983,-0.297303557,0.6297865509986877
1071,17.109766357421876,-5.614719868,-0.416957498,0.5728726983070374
1072,17.12566602,-4.824189663,-0.418361783,0.3045966625213623
1073,17.14147412109375,-3.904146194,-0.124183416,0.055030346
1074,17.15734326171875,-2.846995831,0.2303222417831421,0.3060792088508606
1075,17.173242919921876,-1.138168335,0.5373953580856323,0.7795293927192688
1076,17.18902051,0.5183534622192383,0.6511000394821167,0.5487275719642639
1077,17.204920166015626,1.8384876251220703,0.6855770349502563,0.6214234828948975
1078,17.22075879,2.584374428,0.903194785,0.7380664944648743
1079,17.23659716796875,1.9324350357055664,0.9237685203552246,0.2047746777534485
1080,17.252466552734376,1.4016036987304688,0.6063199043273926,-0.631737888
1081,17.268243896484375,2.606143951416016,-0.050055742,-0.421586514
1082,17.284082763671876,5.879701614379883,-0.68028307,0.1360251903533935
1083,17.299860107421875,8.862976074,-0.188738942,0.4533984065055847
1084,17.315698974609376,8.055508613586426,0.6166695356369019,0.9691269397735596
1085,17.33159863,4.561400413513184,1.280549407,0.5788851976394653
1086,17.347406494140625,1.6551876068115234,1.2228699922561646,-0.998003006
1087,17.36333691,0.6898565292358398,0.2540382146835327,-1.601142168
1088,17.379175537109376,2.236854553222656,-0.866137624,-1.079117179
1089,17.394983642578126,2.629389762878418,-1.836628079,0.2914631366729736
1090,17.41085254,1.899123191833496,-2.57791853,1.1470985412597656
1091,17.42659961,1.384922981262207,-2.751355171,1.3310309648513794
1092,17.44246875,0.379246712,-2.739302158,1.1661919355392456
1093,17.458277099609376,-1.169928551,-2.530862093,0.7406003475189209
1094,17.47414599609375,-2.422228336,-2.363916397,0.3023861646652221
1095,17.49001513671875,-2.564431667,-2.183670044,0.1053102016448974
1096,17.505823486328126,-1.481431961,-1.839244962,0.4336468577384949
1097,17.52172314453125,-0.367340088,-1.304026008,0.1032922267913818
1098,17.53753125,-0.045355797,-0.960549474,-0.614805698
1099,17.55333935546875,-0.798633575,-0.582021892,-1.411204338
1100,17.56926953,-2.346540451,-0.348911881,-1.520397305
1101,17.585047119140626,-4.087039471,-0.267022491,-1.275946975
1102,17.60088574,-4.709846497,-0.26036346,-1.05348897
1103,17.61672412109375,-4.725556374,-0.29913795,-0.639927983
1104,17.632532470703126,-4.285485744,-0.350117564,-0.317854673
1105,17.64843212890625,-4.033061981,-0.397307754,-0.10502845
1106,17.66424023,-4.134705544,-0.260160923,0.2231685519218444
1107,17.68010938,-4.7165308,0.016386509,0.2232731580734253
1108,17.695917236328125,-4.206781387,0.2992953062057495,-0.13429144
1109,17.71172559,-1.821521759,0.4942123889923095,0.2781429290771484
1110,17.727625244140626,1.976593017578125,0.4186576604843139,1.2099566459655762
1111,17.743463623046875,3.9304275512695312,0.441520095,2.360069990158081
1112,17.759332763671875,3.447944641113281,0.6568810939788818,1.7400527000427246
1113,17.77514111328125,2.301410675048828,0.9066444635391236,0.2822496592998504
1114,17.79094922,2.7172155380249023,0.9385627508163452,-0.894163609
1115,17.80681836,4.457897186279297,0.7145322561264038,-1.467373729
1116,17.822656982421876,6.061629295349121,0.8471980094909668,-1.334329724
1117,17.83852587890625,6.433546066,0.973003387,-0.944994867
1118,17.854425537109375,5.0624589920043945,0.8760191202163696,-1.338306785
1119,17.87035595703125,2.993638038635254,0.1818158626556396,-2.363404274
1120,17.886224853515625,2.1761627197265625,-1.249055147,-2.237644196
1121,17.9020332,3.0768308639526367,-2.5485425,-1.057867408
1122,17.91796337890625,3.678522109985352,-3.163600445,-0.036737055
1123,17.93374072265625,3.170053482055664,-3.240536213,0.5494745969772339
1124,17.94960986328125,1.598632813,-2.771024704,-0.210490718
1125,17.965509521484375,-0.390148163,-2.11961031,-1.11681819
1126,17.981348388671876,-2.509472847,-1.516592383,-1.885854244
1127,17.99724805,-3.951140404,-1.111485839,-2.451505661
1128,18.013086669921876,-3.278799057,-1.152001143,-2.160934925
1129,18.028894775390626,-1.617214203,-1.302449465,-1.431522131
1130,18.04479443359375,0.4564428329467773,-1.406557441,-0.632857621
1131,18.060572021484376,2.089902877807617,-1.185982108,-0.168634117
1132,18.076471435546875,0.4206581115722656,-0.754726171,0.021623701
1133,18.092310302734376,-1.602074623,-0.459530175,-0.038877547
1134,18.10811816,-3.468472004,-0.22323668,-0.221591592
1135,18.12395703,-4.540727615,-0.126489639,-0.210474253
1136,18.139764892578125,-4.927881718,-0.259658933,0.081397176
1137,18.15566455078125,-4.565741062,-0.214216828,0.3811971545219421
1138,18.17150341796875,-4.335624218,-0.221077681,0.6000527739524841
1139,18.187281005859376,-4.051525593,-0.119752526,0.7959825992584229
1140,18.203150146484376,-4.193509102,0.1160203218460083,0.092057228
1141,18.21895801,-3.970661163,0.6216787099838257,-0.656367183
1142,18.23476635742188,-3.104475021,0.8512603044509888,-1.299978137
1143,18.25054395,-0.62372303,0.9282575845718384,-1.49026525
1144,18.266382568359376,2.2280941009521484,1.1009544134140017,-0.955792785
1145,18.28225146484375,3.058983803,1.4532434940338137,0.3268537521362304
1146,18.29805981445313,1.826293945,1.8867558240890503,1.111881971359253
1147,18.313989990234376,1.3460073471069336,2.008056163787842,0.01497376
1148,18.32982861328125,2.737126350402832,1.7673627138137815,-1.062002301
1149,18.34563672,5.008032799,1.167341947555542,-1.142370343
1150,18.36144482421875,7.708457946777344,0.9968019723892212,-1.048410296
1151,18.37725293,7.913334846496582,1.1946662664413452,-0.076399088
1152,18.393152587890626,5.924077033996582,0.6859205961227417,-0.145860672
1153,18.40899121,4.068550109863281,-0.399836302,-0.509136915
1154,18.42479931640625,4.303229331970215,-1.623169661,-0.607037663
1155,18.44063793945313,4.430942535400391,-2.706674576,0.7870663404464722
1156,18.45644604492188,3.1742401123046875,-3.392560959,1.6266725063323977
1157,18.47237598,1.231297492980957,-3.500349998,1.4903607368469238
1158,18.48818432617188,-0.451841354,-3.279742241,1.0618771314620972
1159,18.504022705078125,-1.510672569,-2.848389149,0.7268697023391724
1160,18.51989208984375,-2.14392662,-2.349598408,0.1959090232849121
1161,18.5357002,-2.05912447,-2.071557283,0.039958715
1162,18.551599853515626,-1.09474659,-1.832115293,0.3054342269897461
1163,18.567407958984376,-0.233786583,-1.722150683,0.790783167
1164,18.58321582,0.185455322,-1.48004365,1.1515300273895264
1165,18.59908496,-0.637639046,-1.209692955,0.6621553897857666
1166,18.61492383,-2.116492748,-0.912075996,-0.087112546
1167,18.63082348632813,-3.210925579,-0.714252293,-0.56731379
1168,18.64663134765625,-4.178290844,-0.666662753,-0.79868573
1169,18.66240918,-5.199102402,-0.641064525,-0.6604563
1170,18.678278076171875,-5.660357475,-0.694273591,-0.662846088
1171,18.69408642578125,-5.482082844,-0.766127825,-0.798809826
1172,18.7100166,-5.285990238,-0.535095334,-0.653606772
1173,18.725855224609376,-5.72900629,-0.296277761,-0.659009755
1174,18.74163281,-5.616166115,0.035338521,-0.951622128
1175,18.75750195,-4.281267166,0.4736324548721313,-0.994534135
1176,18.773279541015626,-1.008453369,0.960137129,-0.391755462
1177,18.78908740234375,2.7475357055664062,1.322833538,0.2515029609203338
1178,18.80492626953125,4.081729888916016,1.6670838594436646,0.307587206
1179,18.82070385742188,4.380548477172852,1.932021141052246,-0.240383089
1180,18.83660327148437,4.3622026443481445,2.1913938522338867,-1.069734573
1181,18.85244213867188,4.024731636047363,2.280806541442871,-1.339370131
1182,18.86831127929688,3.989686965942383,1.9422398805618288,-1.170434237
1183,18.884149658203125,5.921310424804688,1.3496769666671753,-1.214064121
1184,18.89995801,7.536035537719727,1.1134138107299805,-0.510765195
1185,18.91582715,6.627965927124023,1.0722070932388306,-0.249733388
1186,18.93163525390625,3.703815460205078,0.6724472045898438,-0.8614043
1187,18.947534912109376,0.987884521,-0.256930947,-1.763664484
1188,18.96334277,0.5941219329833984,-1.401184916,-2.623228073
1189,18.97921191,1.935255051,-2.543024063,-2.171520233
1190,18.995111572265625,2.644399642944336,-3.286336899,-0.942639053
1191,19.01088916015625,2.658529281616211,-3.421907425,0.1105029135942459
1192,19.02678881835937,1.2279720306396484,-2.915096521,-0.115448989
1193,19.04259716796875,-0.787296295,-2.199602604,-0.602049947
1194,19.058405029296875,-2.953339577,-1.68671751,-1.239051104
1195,19.07421337890625,-3.292294502,-1.424007893,-1.953980207
1196,19.09002148,-2.732907772,-1.396486282,-1.903930664
1197,19.10592114257813,-1.265625954,-1.216348886,-1.43058908
1198,19.12175977,-0.77630043,-0.922947645,-0.879158616
1199,19.137567626953125,-0.92467308,-0.467218876,-0.441276997
1200,19.15346728515625,-1.353962898,-0.229017258,-0.036379546
1201,19.169244873046875,-2.177199841,-0.582261205,-0.261472732
1202,19.18514453,-2.808975697,-1.011080742,-0.331020892
1203,19.2009834,-3.588736534,-1.336525083,0.205718994
1204,19.216883056640626,-4.775950909,-1.421756983,0.8240194320678711
1205,19.232782470703125,-5.614775181,-1.049443245,0.8600372076034546
1206,19.24859082,-5.536936283,-0.390884399,0.6931262016296387
1207,19.264459716796875,-3.807042599,0.4921891689300537,0.3619835376739502
1208,19.28023754882813,-1.92324543,1.110276222229004,-0.03753078
1209,19.29613720703125,-0.741829872,1.5124778747558594,-0.532390654
1210,19.31200634765625,0.1025857925415039,1.6666605472564695,-0.444878519
1211,19.32778393554688,0.3106889724731445,1.730301856994629,-0.010122001
1212,19.34368359,0.8812904357910156,1.8527820110321045,-0.206336975
1213,19.35955273,1.9757795333862305,1.8007032871246338,-0.796640813
1214,19.37539111328125,3.027888298034668,1.5550477504730225,-0.935125411
1215,19.39126049804688,4.277684211730957,1.1294653415679932,-0.467071712
1216,19.40706836,6.183669090270996,0.7580361366271973,-0.226293147
1217,19.4229375,7.952911376953125,1.064194917678833,0.038257241
1218,19.438745849609376,6.416915893554688,1.6904048919677734,0.5716911554336548
1219,19.45464551,3.801929473876953,2.144679307937622,-0.14573884
1220,19.47051465,1.6718082427978516,2.1146605014801025,-1.560441971
1221,19.486353271484376,2.056025505065918,1.1642580032348633,-2.208489895
1222,19.50234448242188,2.963374137878418,-0.165938616,-0.931966424
1223,19.51815234,3.100561141967773,-1.375105858,0.7231127023696899
1224,19.533960693359376,2.4437990188598637,-2.203664064,2.1164798736572266
1225,19.549799072265625,1.0713720321655271,-2.718467951,2.979722023010254
1226,19.56563793945313,0.1738061904907226,-2.851990223,2.6826345920562744
1227,19.58153759765625,-0.889649391,-2.842067719,1.7891390323638916
1228,19.59737622070313,-2.219399452,-2.835526466,1.0082260370254517
1229,19.61321459960937,-3.174388885,-2.725685596,0.7848705053329468
1230,19.62908398,-3.607511997,-2.546163321,0.8041366338729858
1231,19.644891845703125,-3.420203209,-2.241433859,0.5986114740371704
1232,19.66079150390625,-2.352582932,-1.787035227,0.1507455110549926
1233,19.67663037109375,-1.46933651,-1.389474034,-0.198723912
1234,19.692468994140626,-1.2029953,-0.674091101,-0.841231346
1235,19.708307373046875,-1.930021286,-0.212467074,-1.866151094
1236,19.72408520507813,-2.908774376,0.1368856430053711,-2.183469534
1237,19.73998486328125,-3.453804493,0.018706441,-1.996115088
1238,19.75582324,-3.33545351,0.068881392,-1.54814136
1239,19.771600830078125,-3.675634861,0.044864297,-0.915296078
1240,19.787439697265626,-3.987201691,0.085310817,-0.501906157
1241,19.80327832,-4.117694855,0.064355969,-0.192485988
1242,19.81908642578125,-3.22541666,0.2881127595901489,-0.181394637
1243,19.83492504882813,-1.667590618,0.2936335802078247,0.3910387754440307
1244,19.85073315429688,-0.045222282,0.2817884683609009,1.5452908277511597
1245,19.86663281,2.1421117782592773,0.1867316961288452,2.0033061504364014
1246,19.88244091796875,3.8706560134887695,0.3624980449676513,1.7232425212860107
1247,19.89834057617188,4.439170837402344,0.682688832,1.4084982872009275
1248,19.914148681640626,3.4509668350219727,1.089245319366455,0.7211557030677795
1249,19.92995654296875,2.6876840591430664,1.571642041,0.1901388168334961
1250,19.94579541015625,3.571592330932617,1.958315372467041,-0.480436683
1251,19.96166455078125,6.390396118164063,2.1598105430603027,-1.043660879
1252,19.97753369140625,7.094086647033691,1.9771922826766968,-1.603079081
1253,19.99337207,5.625558853149414,1.6024943590164185,-1.974494219
1254,20.00914990234375,3.563075065612793,0.3931221961975097,-1.96425128
1255,20.024988525390626,2.627267837524414,-1.399314284,-0.755609751
1256,20.040796630859376,2.6788034439086914,-2.589313984,0.373859167
1257,20.05669629,1.552506446838379,-3.408311844,1.207658052444458
1258,20.07250439453125,1.1672649383544922,-3.546920061,0.5861045718193054
1259,20.08828173828125,1.1640262603759766,-3.132941723,-1.280207157
1260,20.10415112304688,0.1437273025512695,-2.612440825,-2.138192177
1261,20.11995898,-1.497200012,-2.177865982,-2.135160923
1262,20.13582813,-2.369522572,-2.04684639,-1.937196732
1263,20.151636474609376,-1.601655483,-1.701769114,-1.358971119
1264,20.167474853515625,-1.017758369,-1.288428307,-0.542084754
1265,20.18337451171875,-1.163729668,-0.70672363,0.01960969
1266,20.19912158203125,-1.277686119,-0.28530705,-0.012260437
1267,20.21505200195313,-2.059940338,0.041558981,-0.244058967
1268,20.23089038085937,-3.50578928,0.256386399,-0.569519401
1269,20.24672924804688,-4.715155125,0.1919898986816406,-1.020116329
1270,20.26262891,-4.809226513,0.1016762256622314,-1.113591313
1271,20.278406494140626,-4.085347652,-0.297495127,-0.632117212
1272,20.29430615234375,-2.917899609,-0.513950229,-0.313340425
1273,20.31011426,-2.787148476,-0.388113856,0.118126631
1274,20.32592236328125,-3.266697407,-0.292552114,0.229239821
1275,20.34179150390625,-2.964622498,-0.077077389,-0.060474753
1276,20.35756909179688,-1.703016281,0.3152357339859009,-0.679394126
1277,20.37349902,-0.21262455,0.6858125925064087,-0.724287152
1278,20.389276611328125,0.323709488,1.280890941619873,-0.222282529
1279,20.405115478515626,-0.968922615,1.7482470273971558,0.012414813
1280,20.420984619140626,-1.032599449,1.9262017011642456,-0.656112432
1281,20.43673168945313,1.6325912475585938,1.738972544670105,-1.301435232
1282,20.452661865234376,5.139291763305664,0.942829728,-1.123253226
1283,20.46846997070313,7.786789894104004,0.5667393207550049,0.389889121
1284,20.48427807617188,7.627253532409668,0.5541054010391235,0.9860349893569946
1285,20.50017773,7.094950675964356,1.439114332199097,0.7496663331985474
1286,20.51614331054688,4.987547874450684,2.074380159378052,-0.551545024
1287,20.53204297,2.809539794921875,1.6320123672485352,-1.734750152
1288,20.54788184,2.1689558029174805,0.2946395874023437,-1.994898558
1289,20.56372021484375,2.922494888305664,-1.245044112,-0.9107427
1290,20.57961987304688,2.4681711196899414,-2.187906981,0.8733525276184082
1291,20.595397705078124,0.8158035278320312,-2.775203228,1.9078168869018557
1292,20.611236083984377,-0.701515198,-2.928217649,2.159294605255127
1293,20.62707470703125,-1.422023773,-2.879152775,1.7943902015686035
1294,20.64288281,-1.086169243,-2.778989553,1.137470841407776
1295,20.658813232421878,-0.643535614,-2.624217033,0.88040638
1296,20.67459082,-0.877903938,-2.394054651,0.8864485025405884
1297,20.690490478515624,-1.025958061,-1.963803768,0.4378541707992553
1298,20.70632885742188,-1.197821617,-1.512521744,0.3221831321716308
1299,20.72219799804688,-1.58449173,-0.940265059,0.1310229301452636
1300,20.73806713867188,-2.306948185,-0.518174231,-0.216830492
1301,20.753814208984377,-2.733981609,-0.314661205,-0.738609612
1302,20.769744384765627,-3.182689667,-0.178963482,-1.152672052
1303,20.78555273,-3.870942593,-0.07878226,-0.96942246
1304,20.801360595703127,-4.381896973,-0.090319991,-0.975824177
1305,20.817229736328127,-4.70165205,-0.073986411,-0.965769053
1306,20.83300732421875,-4.721264839,0.016740322,-1.103678107
1307,20.8489375,-4.070622921,0.2240192890167236,-0.712931037
1308,20.86477612304688,-2.809811115,0.4223750829696655,-0.040906012
1309,20.88061499023437,-1.543198586,0.7467852830886841,0.5573692321777344
1310,20.89648388671875,-1.403120995,0.9815044403076172,0.6876899003982544
1311,20.91229199,-0.340819359,1.174009919166565,0.8819693326950073
1312,20.928191650390627,2.6223602294921875,1.309394121170044,0.7939575910568237
1313,20.944030517578124,5.160573959350586,1.403675198554993,0.9672679901123048
1314,20.95983837890625,5.256604194641113,1.3993327617645264,1.213770866394043
1315,20.975707763671878,4.446876525878906,1.1764476299285889,0.7324814200401306
1316,20.99148510742188,4.011450768,0.8565415143966675,0.1298099160194397
1317,21.00732397460937,4.984788895,0.7541921138763428,0.1794793009757995
1318,21.023162353515627,6.302490234,0.5410498380661011,0.1319313645362854
1319,21.039031494140627,6.258170127868652,0.4238094091415405,0.1052712798118591
1320,21.054900634765627,4.201247215270996,0.1297500133514404,-0.672172308
1321,21.07067822265625,3.049405097961426,-0.546470881,-1.631669521
1322,21.0866084,2.965673446655273,-1.325646043,-1.488151073
1323,21.10238623046875,2.911126136779785,-1.907011628,-0.990570068
1324,21.11816381835937,1.897775650024414,-2.270343065,-0.852587759
1325,21.13403295898437,0.2985334396362304,-2.16116333,-0.859130561
1326,21.149871337890627,-1.416880608,-1.868338585,-1.141918421
1327,21.165740478515627,-3.114411354,-1.433172703,-1.583951116
1328,21.181548583984377,-3.361706734,-1.155554771,-2.150539398
1329,21.197356689453127,-3.083844662,-1.037443399,-2.76402998
1330,21.21322607421875,-1.734250546,-1.090228558,-2.862826347
1331,21.22900341796875,0.2714109420776367,-1.083536863,-2.133416653
1332,21.24487280273437,0.5751409530639648,-0.945334733,-1.34700799
1333,21.260650146484377,-0.819757462,-0.612569571,-0.840288401
1334,21.276458251953127,-3.18983078,-0.368738413,-0.670029521
1335,21.292327392578127,-4.472811222,-0.164823294,-1.192562819
1336,21.30813574,-5.486837387,-0.111473799,-0.614277959
1337,21.32397412109375,-6.043207169,-0.222557545,0.000127316
1338,21.339782470703124,-5.856207848,-0.264290214,0.2622954845428467
1339,21.355559814453127,-4.909255028,-0.391011834,0.154462457
1340,21.37145947265625,-3.763776302,-0.163098812,0.4751501083374023
1341,21.387359130859377,-2.868922234,0.1317931413650512,-0.003938794
1342,21.40325879,-1.618332386,0.6068007946014404,-0.23766768
1343,21.419036376953127,0.7882404327392578,0.699077845,-0.278398573
1344,21.434875244140624,3.199378967285156,0.7974048852920532,0.255844235
1345,21.45071362304688,3.526515007019043,1.0032072067260742,1.003443956375122
1346,21.46652197265625,2.645170211791992,1.4092336893081665,1.1443743705749512
1347,21.48239111328125,2.7434043884277344,1.597905158996582,-0.200924873
1348,21.498198974609377,3.2847728729248047,1.5406264066696167,-1.498752117
1349,21.514007080078127,4.126190185546875,0.9589751958847046,-1.389733911
1350,21.5299375,6.230582237243652,0.6385051012039185,-0.294221401
1351,21.54580664,7.825741767883301,0.7183928489685059,0.3348079919815063
1352,21.561675537109377,6.462464332580566,1.0836836099624634,0.2768045663833618
1353,21.57751416015625,3.117403030395508,1.2208986282348633,-0.177155256
1354,21.59329174804688,0.8697538375854492,0.8320927619934082,-1.175694466
1355,21.60916088867188,1.2527198791503906,0.082915306,-1.494626284
1356,21.62493848,2.060603141784668,-0.808408141,-1.034886122
1357,21.640838134765627,1.4541597366333008,-1.760574579,0.7760884761810303
1358,21.65661572265625,0.1500177383422851,-2.266382456,1.982157111167908
1359,21.67242383,-0.58662796,-2.596779585,2.184543371200561
1360,21.688323486328127,-0.668190956,-2.572647095,1.7721885442733765
1361,21.70413159179688,-1.160485268,-2.51642251,0.9729691743850708
1362,21.71993994140625,-1.386959076,-2.369355202,0.3697779178619385
1363,21.735747802734377,-1.256329536,-2.261344671,0.3745825290679931
1364,21.75155615234375,-1.256773949,-2.063964128,1.0149447917938232
1365,21.767455810546878,-1.043915749,-1.58567214,0.7267093062400818
1366,21.78332470703125,-0.248503685,-0.728581488,-0.376235902
1367,21.79919384765625,-0.614659309,-0.204136133,-1.757150292
1368,21.81497143554688,-1.363451004,0.4643148183822632,-2.680341721
1369,21.830779541015627,-2.757331848,0.4872747659683227,-2.560768127
1370,21.84667919921875,-4.038619518,0.2428691387176513,-1.711694241
1371,21.8624873,-4.411763668,-0.12470603,-0.866509616
1372,21.878386962890627,-4.881578922,-0.376892805,-0.198152006
1373,21.89419531,-5.022195339,-0.454525471,0.3531776666641235
1374,21.91003369140625,-4.769282818,-0.214169502,0.5845906734466553
1375,21.92590283203125,-4.349112511,0.2833174467086792,0.058307171
1376,21.94168041992188,-3.175134659,0.571318507,-0.497459948
1377,21.95761083984375,-0.378741264,0.7181912660598755,-0.214572549
1378,21.97341870117188,1.8195505142211916,0.6639397144317627,0.8693034052848816
1379,21.98928784179688,2.94258976,0.8502837419509888,1.5738046169281006
1380,22.00506543,2.518442153930664,1.2929445505142212,1.738653540611267
1381,22.020873779296878,2.446386337280273,1.6218822002410889,1.0207796096801758
1382,22.036712158203127,3.5707807540893555,2.093785285949707,-0.316068083
1383,22.05252051,5.092004776000977,2.394043445587158,-1.902054787
1384,22.068328369140627,7.139249801635742,2.6167690753936768,-2.660297871
1385,22.08422802734375,8.015910148620605,2.7226834297180176,-2.752408981
1386,22.10003613,6.204961776733398,2.389693260192871,-2.725296974
1387,22.11596655273437,3.987365723,1.634009599685669,-2.402977467
1388,22.131713623046878,2.128551483154297,0.024123073,-1.852368116
1389,22.147552001953127,1.4935579299926758,-1.821616054,0.2954557538032532
1390,22.16348242,0.9299945831298828,-3.155002117,1.456557273864746
1391,22.179290283203127,0.1402349472045898,-3.777399778,2.030004501342773
1392,22.195129150390624,-0.269812584,-3.74837327,1.944493293762207
1393,22.21093701171875,-0.82392025,-3.375955105,1.5416988134384155
1394,22.22674512,-1.787094116,-2.789838076,0.5485808849334717
1395,22.242644775390627,-2.21325922,-2.003869295,-0.501167059
1396,22.258513916015627,-2.052098274,-1.396808147,-1.108258963
1397,22.27435254,-1.426196098,-0.82848537,-1.345038414
1398,22.29016064453125,-0.859297752,-0.366986275,-1.383758426
1399,22.30602978515625,-0.61369133,0.094692826,-1.077196479
1400,22.32189892578125,-1.053458214,0.31521368,-0.707307935
1401,22.33773779296875,-1.839476585,0.4661988019943237,-0.656148195
1402,22.35369824,-2.661448479,0.5264725685119629,-0.696789324
1403,22.369475830078127,-3.392373562,0.4172167778015136,-1.173671603
1404,22.38528418,-3.84392786,0.26250875,-1.178214073
1405,22.40115332,-4.092790604,-0.049123049,-0.806430221
1406,22.416930908203124,-4.055270672,-0.290211916,0.084787726
1407,22.43283056640625,-4.056973934,-0.335050583,1.1184355020523071
1408,22.44866895,-4.151818752,-0.162204862,0.8923132419586182
1409,22.46444677734375,-3.605124474,0.2848947048187256,-0.534041107
1410,22.480315673828127,-1.598340034,0.6742113828659058,-1.135151982
1411,22.49609350585937,1.5123071670532229,0.7247629165649414,-1.03640151
1412,22.51199316,3.6720781326293945,0.9589698314666748,-0.108754873
1413,22.52783154296875,3.776968955993652,1.2677674293518066,1.0472182035446167
1414,22.54370068359375,1.969101905822754,1.5218945741653442,1.09641695
1415,22.55960034179688,1.2902984619140625,1.4259384870529177,0.02868247
1416,22.57543920898437,2.974297523498535,1.1010133028030396,-1.308721185
1417,22.59136914,5.215247154,0.7944711446762085,-1.00214088
1418,22.60723828,6.471588134765625,1.0059579610824585,0.018651366
1419,22.62304638671875,5.786207199,1.6212151050567627,0.7664710283279419
1420,22.638976806640624,3.691961288452149,1.8737319707870483,-0.42372191
1421,22.654723876953124,2.3989620208740234,1.259026288986206,-1.568445325
1422,22.67062353515625,2.962610244750977,-0.144771576,-0.964074254
1423,22.68646191,4.4679365158081055,-1.3030864,0.095654488
1424,22.702270263671878,3.9518537521362314,-2.233567238,1.7868767976760864
1425,22.71813916015625,1.6602754592895508,-2.587490559,3.1939640045166016
1426,22.73391699,-0.665220261,-2.799640179,3.207908868789673
1427,22.749816650390624,-1.678740025,-2.730353355,2.3766303062438965
1428,22.76565502929688,-2.011544704,-2.298545599,1.34726882
1429,22.78143262,-2.446024418,-1.729044318,0.631995678
1430,22.79730176,-1.791399956,-1.136499882,-0.494830787
1431,22.813110107421878,-1.07729435,-0.697592139,-1.207611322
1432,22.828948486328127,-0.684550285,-0.383219123,-1.457967758
1433,22.84478711,-0.569881439,-0.173625827,-1.583946228
1434,22.86062598,-1.163965225,0.029876351,-1.923746586
1435,22.87649487304688,-2.478199482,0.039653897,-2.02641511
1436,22.892272705078124,-4.096406937,0.032591939,-2.163410902
1437,22.90817236328125,-5.436078072,-0.065023661,-1.689093351
1438,22.92401074,-5.730703831,-0.264613867,-0.9190467
1439,22.939849365234377,-5.486982346,-0.478619099,-0.196415603
1440,22.95574902,-5.473445415,-0.459098935,0.6327511072158813
1441,22.97158789,-5.184925079,-0.2107054,1.4074978828430176
1442,22.987487548828124,-4.675414085,0.1445869207382202,1.7068169116973877
1443,23.00329541015625,-3.189853668,0.3327046632766723,1.099374532699585
1444,23.01913427734375,-0.358105659,0.5339527130126953,0.3848628401756286
1445,23.035003173828127,2.846017837524414,0.7272814512252808,0.4086546301841736
1446,23.05078100585937,4.732988357543945,0.8819423913955688,0.8162208795547485
1447,23.06671094,5.017077445983887,1.249220848083496,0.7033141851425171
1448,23.0825498,3.8287200927734375,1.742153882980347,-0.172446579
1449,23.098357666015627,3.6030664443969727,2.102748394012451,-1.80379045
1450,23.11422705078125,4.575936317443848,2.2469754219055176,-2.255011797
1451,23.13006543,6.210550308227539,2.274839162826538,-1.221442819
1452,23.14593457,6.767502784729004,2.198404550552368,-0.257277668
1453,23.161742919921878,5.7126569747924805,1.8064948320388796,-0.625460684
1454,23.177581298828127,3.477153778076172,0.8193297386169434,-0.775657952
1455,23.193450439453127,2.236026763916016,-0.75370717,-0.72198379
1456,23.20922802734375,2.194629669189453,-2.094127417,-0.092591345
1457,23.22512768554688,2.331188201904297,-2.829014301,0.5846545696258545
1458,23.24093603515625,2.004633903503418,-3.088486671,0.8881362080574036
1459,23.25671337890625,1.347367286682129,-2.811307669,0.3773511052131653
1460,23.272582763671878,-0.115086555,-2.172826767,-0.520161033
1461,23.288451904296878,-2.30856657,-1.348964453,-1.424119473
1462,23.304290283203127,-3.809942245,-0.578078508,-2.121748924
1463,23.32012891,-4.104015827,-0.249655366,-2.73192668
1464,23.335906494140627,-3.062773228,-0.347909927,-2.418539524
1465,23.35180615234375,-1.150303841,-0.777908564,-1.658111811
1466,23.36764501953125,0.3966817855834961,-1.087966204,-0.692630827
1467,23.38354467773437,0.5129241943359375,-0.927607059,-0.196981192
1468,23.39941381835937,-0.88536644,-0.706475317,-0.081598818
1469,23.41519141,-2.779155254,-0.611777544,-0.124299824
1470,23.43106055,-3.830767632,-0.499528885,-0.354993403
1471,23.446838134765624,-4.394818306,-0.354938269,-0.441837847
1472,23.462737548828127,-5.07105875,-0.448194146,-0.039493799
1473,23.47854565429688,-5.308465004,-0.506169796,0.8016529083251953
1474,23.49435400390625,-5.04497242,-0.631839216,1.0017472505569458
1475,23.51025366210937,-3.901992321,-0.24802506,0.4870632886886596
1476,23.526031005859377,-2.572343349,0.058280945,-0.062745333
1477,23.54202246,-0.771839142,0.6689276695251465,-0.396815896
1478,23.557830322265627,1.1031475067138672,1.3048224449157717,-0.467550337
1479,23.57360791015625,2.355815887451172,1.7116605043411257,-0.549813569
1480,23.58938549804688,2.5294981002807617,2.1449666023254395,-0.805624008
1481,23.60519384765625,2.4769411087036133,2.167151451,-1.247075081
1482,23.62103223,3.859110832214356,1.8726404905319212,-1.770394564
1483,23.63684033203125,5.683594703674316,1.3100121021270752,-2.287738323
1484,23.65264844,8.096020698547363,1.3702365159988403,-1.731740355
1485,23.66851758,7.417655944824219,1.9292314052581787,-0.846741319
1486,23.684295166015627,4.430214881896973,2.4230403900146484,-1.468424559
1487,23.700164306640627,0.8176822662353516,1.9759451150894165,-1.766464233
1488,23.716003173828124,1.1064319610595703,0.7465091943740845,-1.683243394
1489,23.731872314453124,3.039981842041016,-0.774653673,-0.764234781
1490,23.74764990234375,3.657583236694336,-1.824313283,1.642023682594299
1491,23.76345776367188,2.6170482635498047,-2.472166061,3.6386895179748535
1492,23.77932690429688,0.9678945541381836,-2.572052956,4.221886157989502
1493,23.79516577148437,-0.860159874,-2.145562649,2.7694616317749023
1494,23.810943115234377,-2.208211422,-1.672334433,0.9471466541290284
1495,23.826873291015627,-2.771458149,-1.430476427,0.073721886
1496,23.84268164,-2.158442974,-1.473638654,0.2071398496627807
1497,23.85861181640625,-0.69701767,-1.454039574,-0.200136065
1498,23.874419677734377,0.7739591598510742,-1.26819551,-0.686034799
1499,23.890258544921878,1.5119590759277344,-0.941091835,-0.946402371
1500,23.906127685546878,1.0906696319580078,-0.57877332,-1.246277571
1501,23.92193555,-0.937522888,-0.307716966,-1.611885548
1502,23.93780469,-3.192720413,-0.049567223,-1.571172357
1503,23.953674072265624,-4.773008347,-0.131124854,-0.996153772
1504,23.969451416015627,-5.739227295,-0.142184973,-0.352160096
1505,23.98535107421875,-6.036403656,-0.165552855,0.06221056
1506,24.001128662109377,-5.334047318,0.033700705,0.1096159219741821
1507,24.017058837890627,-4.048233986,0.2986422777175903,0.2689722776412964
1508,24.03289746,-3.401108742,0.6153469085693359,0.4295949935913086
1509,24.0487666,-3.395287514,0.6432332992553711,0.012583375
1510,24.064635986328124,-2.195730686,0.788791299,0.2160968780517578
1511,24.08044384765625,0.9790983200073242,0.6747850179672241,0.7009824514389038
1512,24.09631298828125,4.130186080932617,0.6707552671432495,1.3179961442947388
1513,24.11215185546875,4.782271385192871,0.7901285886764526,1.722468376159668
1514,24.12792944335937,2.895242691040039,1.1979347467422483,1.0679643154144287
1515,24.14379858398437,1.516444206237793,1.5932085514068604,0.019690216
1516,24.159636962890627,1.7658195495605469,1.978618621826172,-1.85810864
1517,24.17553662109375,3.931338310241699,2.100017547607422,-2.160573483
1518,24.191344970703124,6.122952461242676,2.1757826805114746,-1.902695894
1519,24.20721387,7.099513053894043,2.2083451747894287,-2.130418777
1520,24.22311376953125,5.102889060974121,1.587921142578125,-2.363230705
1521,24.238891357421878,3.5529556274414062,0.4221059083938598,-2.517782211
1522,24.25469922,2.623171806335449,-1.065648317,-1.894360781
1523,24.27056836,2.1442737579345703,-2.116299868,-0.873443663
1524,24.28640723,1.1413908004760742,-2.538072586,0.037808239
1525,24.302306884765624,0.4720592498779297,-2.708734989,0.4425711035728454
1526,24.31814526367188,-0.310036659,-2.541193962,0.2682632207870483
1527,24.33401440429688,-1.200424194,-1.990127087,-0.656920373
1528,24.34985327148437,-2.258481979,-1.410496473,-1.283085346
1529,24.36572241210937,-3.237543106,-1.083702087,-1.924288273
1530,24.3815,-3.358672142,-1.163033485,-1.483087182
1531,24.39733837890625,-2.587771893,-1.284773827,-0.602714419
1532,24.413177001953127,-1.374218941,-1.238801122,-0.032112777
1533,24.42898510742188,-0.627575874,-1.064817429,0.309747577
1534,24.44479345703125,-0.978430748,-0.602509618,0.5716304779052734
1535,24.46066259765625,-2.126968384,-0.286188781,0.4827065467834472
1536,24.47640966796875,-3.293070316,0.054266572,0.159055471
1537,24.492309326171878,-4.234708309,0.2705991268157959,-0.430379093
1538,24.508147705078127,-4.840707779,0.3812766075134277,-0.940038443
1539,24.52392529296875,-4.344843388,0.4193533658981323,-0.226317048
1540,24.5397334,-3.087557793,0.4297122955322265,0.6858631372451782
1541,24.55566357421875,-1.627241135,0.3816761970520019,1.072757601737976
1542,24.57153271484375,-1.578104973,0.4663608074188232,0.117786169
1543,24.587310302734377,-1.502447128,0.7317266464233398,-1.112662792
1544,24.603179443359377,-0.532295227,0.9597139358520508,-1.382395506
1545,24.619048583984377,1.2803735733032229,1.0381677150726318,-0.955461979
1546,24.63482617,3.4782543182373047,1.3310503959655762,-0.112818122
1547,24.650725830078127,3.3258514404296875,1.5100644826889038,0.2939884662628174
1548,24.66653393554688,1.6562004089355469,1.556493878364563,0.025465846
1549,24.682342041015627,0.6910505294799805,1.2631676197052002,-0.736508191
1550,24.698180908203124,1.8938684463500977,0.5093041658401489,-0.850648999
1551,24.714019287109377,4.001749038696289,0.3919106721878052,0.1288319826126098
1552,24.729858154296878,5.660180092,0.6835551261901855,1.7843644618988037
1553,24.74566602,5.927380561828613,1.1160423755645752,1.980658173561096
1554,24.76150488,4.769751549,0.6823389530181885,0.7561250925064087
1555,24.77737402,4.207253456115723,-0.260365367,0.090769529
1556,24.79315137,4.197454452514648,-1.319764256,0.127975583
1557,24.808989990234377,3.931866645812988,-2.139875889,0.7980823516845703
1558,24.824767822265624,3.3448143005371094,-2.30815649,1.5901650190353394
1559,24.84057568359375,1.9649982452392576,-2.438575268,2.1474642753601074
1560,24.85644482421875,0.4706850051879883,-1.979035497,1.4493447542190552
1561,24.87225293,-1.47358036,-1.539298177,0.3509128093719482
1562,24.88818334960937,-2.961751461,-1.104815364,-0.527794361
1563,24.904021728515627,-4.054069042,-0.819368958,-1.034301281
1564,24.91979931640625,-4.480150223,-0.689827383,-0.730015993
1565,24.935729736328124,-3.994383812,-0.680487752,-0.705554843
1566,24.951507080078127,-2.275084496,-0.54196018,-1.051909804
1567,24.96740673828125,-0.881364822,-0.465546072,-1.10584712
1568,24.98321484,-1.15925312,-0.201543987,-1.360183716
1569,24.99902319335937,-2.566839695,0.083296478,-1.599161625
1570,25.014861572265627,-4.475120068,0.2465397119522094,-1.73820734
1571,25.030639404296878,-5.639812946,0.3029600977897644,-1.604979873
1572,25.046569580078124,-5.390069008,0.5959348678588867,-1.266288757
1573,25.062346923828127,-5.426269054,0.6376320123672485,-0.652714372
1574,25.07815502929688,-4.875247002,-0.128574789,0.052242637
1575,25.09399365234375,-1.419965744,0.1537695527076721,0.5405547618865967
1576,25.109771240234377,-2.993047714,0.3478342294692993,0.9871889352798462
1577,25.125640380859377,-0.310738564,1.2692821025848389,0.380351186
1578,25.141448486328127,-0.116283417,1.4572384357452393,0.3725416660308838
1579,25.15725659179688,2.254075050354004,1.4276714324951172,1.5860273838043213
1580,25.17312598,1.9513072967529297,1.448799729347229,2.492696762084961
1581,25.18890332,0.963531494,1.720628023147583,1.9790445566177368
1582,25.204802978515627,0.7124118804931641,1.6274988651275637,0.3075121641159057
1583,25.22058056640625,1.5309333801269531,1.441312551498413,-0.638412774
1584,25.236388916015624,5.844581604003906,1.2122366428375244,-0.847245932
1585,25.252319091796878,10.354084014892578,1.480695724487305,-1.232109904
1586,25.26809643554688,6.952847480773926,0.892119288,-0.945864916
1587,25.28396557617188,5.277688980102539,0.2802900373935699,-0.759799838
1588,25.29974316,2.6269187927246094,-0.389079869,-1.068951964
1589,25.31558203,2.0056047439575195,-1.293171644,-0.560246229
1590,25.331450927734377,3.669976234436035,-2.483789921,1.354978084564209
1591,25.34728955078125,3.235693932,-2.975333214,1.7185676097869873
1592,25.363097900390624,-0.325105667,-2.548920631,0.7988036870956421
1593,25.37893627929688,-1.913527966,-1.822418332,-0.464663386
1594,25.39477514648437,-2.674893856,-1.201302767,-3.427791119
1595,25.41058301,-0.407171249,0.4777089953422546,-6.482744217
1596,25.426360595703127,0.6655950546264648,-1.898645401,-1.226682663
1597,25.44226025390625,-1.388571739,-1.83311224,-0.333817184
1598,25.458098876953127,-0.951063156,-1.648459911,-0.376818687
1599,25.47390698242188,-0.569032669,-0.846327186,0.6782605051994324
1600,25.48980664,-1.694334984,-0.228415862,-0.031259358
1601,25.50564526367188,-3.338824749,0.4830106496810913,-1.101624012
1602,25.52151440429688,-5.749670506,0.8570719957351685,-1.306764364
1603,25.53729199,-6.478983879,1.0579179525375366,-0.724603593
1604,25.553108642578124,-5.73113203,1.2312870025634766,-0.895060658
1605,25.568947509765625,-5.098408699,1.2678388357162476,-1.479646325
1606,25.58472509765625,-4.827070236,0.6115003228187561,-1.207766533
1607,25.60062475585937,-3.60904932,0.8169050812721252,-0.911790073
1608,25.61646337890625,-2.520532608,1.0035088062286377,-1.135980368
1609,25.63227124023437,-1.488138199,1.223642110824585,-1.282410502
1610,25.6481709,-0.858696938,1.3970112800598145,-1.444965363
1611,25.663948486328124,0.8376598358154297,1.2259242534637451,-1.421634197
1612,25.67975684,3.4553422927856445,1.2073452472686768,-1.039486051
1613,25.69559521484375,3.964748383,1.3277337551116943,-0.967013538
1614,25.71143408203125,3.076544761657715,1.2316440343856812,-0.852850616
1615,25.72730322265625,3.485459327697754,0.7777490615844727,-0.507515907
1616,25.74311108398437,4.5053911209106445,0.1340285539627075,-0.451566815
1617,25.75898047,5.289093971252441,0.1378313899040222,-0.300094962
1618,25.77475781,4.223824501037598,0.7447391152381897,-0.227868915
1619,25.79059668,3.187249183654785,1.185647726,0.2623813152313232
1620,25.80643505859375,3.849393844604492,0.4104251861572265,1.0038021802902222
1621,25.822273681640624,5.240049362182617,-1.219188213,1.720322847366333
1622,25.83817333984375,5.741203308105469,-2.439596653,1.5536203384399414
1623,25.85401220703125,4.729551315307617,-3.22397089,2.148353576660156
1624,25.86985059,2.412477493286133,-2.972849369,2.0446081161499023
1625,25.885750244140624,-0.016197205,-1.928963184,0.982450008
1626,25.901528076171875,-1.865746021,-0.982624531,0.6796257495880127
1627,25.91739697265625,-2.188569069,-0.545024633,0.6881090402603149
1628,25.9331748,-2.512396812,-0.361081034,0.3614548444747925
1629,25.94901318359375,-2.656279564,-0.612111449,0.010966182
1630,25.96485205078125,-1.877950668,-0.83935535,0.092861056
1631,25.98065991210937,-1.568509102,-1.153498411,-0.04405582
1632,25.99655957,-2.020020485,-0.705689788,0.2746163606643677
1633,26.01242871,-2.260545254,-0.401108086,-0.219188869
1634,26.02826758,-2.982705593,0.1116953492164611,-0.615596294
1635,26.04413672,-3.811029434,0.4783955216407776,-0.929851294
1636,26.05988379,-3.853572369,0.4917620420455932,-1.276607752
1637,26.07581396484375,-3.385239124,0.4108871817588806,-0.918623626
1638,26.091621826171878,-2.796014786,0.4568536281585693,-0.618937492
1639,26.10746069335937,-3.41865778,0.6834564208984375,-0.563757539
1640,26.12332983398437,-3.778587341,1.122478723526001,-0.442012846
1641,26.1391377,-3.505611897,1.1809900999069214,-0.486141771
1642,26.15506787109375,-2.23641634,1.217685580253601,-0.262655616
1643,26.17090673828125,-1.068014145,1.05742085,-0.195537984
1644,26.186745361328125,0.8019609451293945,1.0358757972717283,0.2685530185699463
1645,26.20267553710937,2.3082103729248047,1.1337804794311523,0.1926988959312439
1646,26.21845288085937,2.417699813842773,1.395392894744873,0.5534689426422119
1647,26.23432227,2.5453977584838867,1.4525723457336426,0.4353723526000976
1648,26.250160888671875,2.383665084838867,1.371424913406372,-0.113414526
1649,26.265968994140625,3.4594459533691406,0.5858229398727417,-0.217636853
1650,26.28180762,5.518196105957031,0.5575702786445618,0.581442654
1651,26.29764599609375,5.421010017,0.9154609441757202,0.7790695428848267
1652,26.313545654296878,4.543483734130859,0.7829126119613647,-0.199624717
1653,26.32938452148437,4.404441833496094,-0.083657116,-0.8509202
1654,26.34528418,5.244379043579102,-1.547675133,-0.824842215
1655,26.36115332,6.654294013977051,-2.423328161,0.077029526
1656,26.376930908203125,5.109007835388184,-2.33962512,0.09100759
1657,26.39283056640625,1.5773086547851562,-1.918477297,-0.869349003
1658,26.40863842773437,-0.411536217,-1.418853998,-1.298285007
1659,26.424477294921875,-2.598221779,-1.235719442,-1.569231749
1660,26.44031591796875,-2.987005234,-1.341292262,-1.692948341
1661,26.45612402,-2.164874077,-1.510764599,-1.320134401
1662,26.47202344,-0.795419693,-1.80346489,-0.68006593
1663,26.48783178710937,0.01940155,-1.671227694,0.019726336
1664,26.50373145,-0.475542068,-1.146035075,0.00346154
1665,26.519600341796878,-2.065091133,-0.492257953,-0.26675719
1666,26.535378173828125,-3.704800606,0.1152990460395813,-0.54628396
1667,26.55127783203125,-4.960009575,0.523369312,-0.17608124
1668,26.56708594,-5.223345757,0.5260925889015198,0.1719902753829956
1669,26.582893798828124,-4.723731518,0.5683030486106873,-0.24842906
1670,26.59870215,-5.235776424,0.573459268,-1.002278209
1671,26.61454052734375,-5.8615942,0.6858072280883789,-1.8013587
1672,26.630470947265625,-4.962878704,0.488474578,-1.484088778
1673,26.646340087890625,-2.128808975,0.4692293405532837,-0.899948955
1674,26.66211767578125,-1.562636375,0.9222694635391236,-0.896080732
1675,26.67801733398437,-1.595880508,1.527475357055664,-1.767151594
1676,26.693764404296875,-1.053003311,1.976569652557373,-2.41648531
1677,26.70966406,0.7315893173217773,2.1487696170806885,-2.669928312
1678,26.725471923828124,2.5231590270996094,2.3228578567504883,-2.482467175
1679,26.741310791015625,3.5974740982055664,2.136939525604248,-1.678408623
1680,26.757179931640625,4.447893142700195,1.6098618507385254,-0.673865497
1681,26.77298779296875,4.863586426,1.1519445180892944,-0.156940937
1682,26.78891797,5.373411178588867,0.7773438692092896,0.1778335571289062
1683,26.80478711,6.486737251281738,0.9760492444038392,0.6513664722442627
1684,26.820564697265624,5.1961774826049805,1.3578237295150757,0.8946704864501953
1685,26.83646435546875,3.050107002258301,1.4844331741333008,1.343472957611084
1686,26.852272705078125,3.0062952041625977,0.4331485629081726,1.4779313802719116
1687,26.86817236328125,4.624361991882324,-0.995676279,1.343382716178894
1688,26.88398022460937,5.110338211,-2.256515503,1.5011247396469116
1689,26.89978857421875,3.959485054016113,-2.682097912,1.1619030237197876
1690,26.91565771484375,2.260622024536133,-2.573652506,0.9961769580841064
1691,26.93143530273437,1.1603002548217771,-2.310339928,0.9294692277908324
1692,26.94733496,-0.269377708,-1.686902046,0.8395628929138184
1693,26.96317333984375,-1.423913002,-1.060886502,0.3495492935180664
1694,26.97901220703125,-2.144879818,-0.661435068,0.4834389686584472
1695,26.994850830078125,-2.370775223,-0.766509712,0.4613763093948364
1696,27.010658935546875,-1.532865524,-0.908516645,0.3471585512161255
1697,27.02658887,-1.752225876,-0.67412281,-0.272566199
1698,27.04236669921875,-2.643015385,-0.225007296,-1.080882788
1699,27.058235595703124,-3.37877512,0.2361318171024322,-1.721844912
1700,27.074104736328124,-4.587311268,0.3397097289562225,-2.298203945
1701,27.08991309,-5.42744875,0.2448675632476806,-2.227440596
1702,27.105781982421878,-5.548032761,0.1739755868911743,-1.803497553
1703,27.121559814453125,-5.196590424,0.095914513,-1.499618649
1704,27.137367919921875,-4.788290977,0.2603388726711273,-1.395688772
1705,27.153237060546875,-5.021145344,0.5760276317596436,-1.40995729
1706,27.16904492,-4.190034389,0.8068960905075073,-1.39038384
1707,27.184944580078124,-2.670940399,0.7548086643218994,-0.960061312
1708,27.200783447265625,-0.912658691,0.8369237184524536,-0.568167686
1709,27.21659130859375,-0.292361259,1.162787675857544,-0.303909183
1710,27.232490966796878,0.7493085861206055,1.4025025367736816,0.06583941
1711,27.248268798828125,2.1907434463500977,1.5778765678405762,0.5935430526733398
1712,27.26419897460937,2.9538679122924805,1.5771713256835938,0.4185388088226318
1713,27.28000684,3.469270706176758,1.9326019287109373,0.5954914093017578
1714,27.29587598,4.132024765014648,1.964699387550354,0.4824868440628052
1715,27.311745361328125,4.534673690795898,1.1002795696258545,0.5617899894714355
1716,27.327522705078124,6.299225807189941,0.4277642369270324,0.9892616868019104
1717,27.34339208984375,6.519122123718262,0.396493137,0.9390918016433716
1718,27.35935254,5.067181587219238,0.1533973217010498,-0.076444864
1719,27.375160888671875,3.908611297607422,0.1273874640464782,-0.686582685
1720,27.39106055,4.4448347091674805,-1.49121213,-0.475088865
1721,27.40689892578125,5.618216514587402,-3.18005228,-0.014429629
1722,27.422829345703125,4.703846931,-3.672607183,-0.218367398
1723,27.438698486328125,2.131445885,-3.243548155,-1.033333659
1724,27.45447607421875,0.1169023513793945,-2.811155796,-1.803642392
1725,27.470375732421875,-1.070583344,-2.358700752,-1.937634468
1726,27.486214111328124,-1.868876457,-2.093651295,-1.698987961
1727,27.50211376953125,-2.510875225,-1.999528885,-1.410541296
1728,27.517952392578124,-2.540403843,-1.754465818,-1.141590238
1729,27.53372998046875,-2.540957451,-1.424344659,-0.810627103
1730,27.549629638671878,-2.138599396,-0.840594053,-0.321365297
1731,27.5655293,-2.428384304,-0.242894694,-0.329241633
1732,27.58136816,-3.376607895,0.377140075,-0.256242275
1733,27.5972373,-4.090993404,0.8349394798278809,-0.207360268
1734,27.613014892578125,-4.67088604,0.9024630784988404,-0.305027306
1735,27.62891455078125,-5.410571575,0.6112821102142334,-0.409183264
1736,27.64472241210937,-5.150808811,0.4566134810447693,-0.264384151
1737,27.66059155273437,-4.776275635,0.2321925908327102,-0.350009322
1738,27.67636914,-4.257130146,0.6471414566040039,-0.578168273
1739,27.69217749023437,-3.480466366,0.7633436918258667,-0.898324192
1740,27.70804663085937,-2.05309391,0.6020733118057251,-1.402023792
1741,27.72385449,0.7929010391235352,0.2436489462852478,-1.474218011
1742,27.739662841796875,1.974076271057129,0.4929007887840271,-1.41964972
1743,27.755501220703124,1.4710197448730469,1.094275951385498,-1.925666809
1744,27.77130957,1.3618659973144531,1.5743770599365234,-1.496848226
1745,27.78714794921875,2.487847328186035,1.4506564140319824,-0.646217465
1746,27.802956298828125,3.106957436,1.040576696395874,-0.307101965
1747,27.81888647460937,3.855940818786621,0.6181318163871765,-0.27712357
1748,27.83469434,4.425283432006836,0.2163573503494262,0.063394904
1749,27.850502685546875,5.450848579406738,0.041530371,0.4448357820510864
1750,27.866371826171875,4.710181236,0.1888905763626098,0.6631886959075928
1751,27.88227148,3.764763832092285,0.684633732,0.820233941
1752,27.89820166015625,3.0716514587402344,0.3011144399642944,0.6784534454345703
1753,27.91407080078125,3.632258415222168,-1.21804142,0.5693860054016113
1754,27.92990918,4.602639198303223,-2.839678526,0.7362521886825562
1755,27.94577832,3.671170234680176,-3.094679356,1.050729751586914
1756,27.961555908203124,1.4415531158447266,-2.554088831,0.9463260173797609
1757,27.977425048828124,0.006858826,-2.171897888,0.9837050437927246
1758,27.9932334,-1.096338272,-1.752737641,0.8827112913131714
1759,28.00904150390625,-1.46441555,-1.505122066,0.4969743490219116
1760,28.02491064453125,-1.63924408,-1.468862534,-0.138533592
1761,28.040688232421875,-1.124297142,-1.550801158,-0.471971869
1762,28.056648681640624,-0.332566261,-1.402257919,-0.376897871
1763,28.072426513671875,-0.755364418,-0.865730643,-0.652097404
1764,28.08823438,-2.039336681,-0.113950983,-1.301683426
1765,28.104103759765625,-3.436707973,0.2939132452011108,-1.407588601
1766,28.119881103515624,-3.478050232,0.2602436244487762,-1.339712977
1767,28.135719970703125,-2.510636806,0.1297388672828674,-0.998438597
1768,28.15155834960937,-2.753427505,0.022272557,-1.205097914
1769,28.167336181640625,-3.779344559,0.2492781281471252,-1.498195887
1770,28.18320508,-4.28508091,0.57081008,-1.317896247
1771,28.19901342773437,-4.495319366,0.8968364596366882,-1.372800469
1772,28.214851806640624,-4.67700386,1.262720227241516,-1.11105299
1773,28.230690673828125,-2.972374916,1.278175950050354,-0.307449937
1774,28.24649853515625,-1.631032944,1.3985426425933838,0.2198418378829956
1775,28.26239819335937,-0.571111679,1.6498901844024658,0.437813938
1776,28.27823681640625,0.7198600769042969,1.4189456701278689,0.8634890913963318
1777,28.29413647460937,1.7856197357177734,1.29108727,1.3229961395263672
1778,28.30991406,2.596329689025879,0.7606237530708313,1.2365363836288452
1779,28.32575293,2.7648277282714844,0.8893073797225952,0.7984943389892578
1780,28.34159155273437,2.8461475372314453,0.9071717262268066,0.5918421745300293
1781,28.357429931640624,3.520199775695801,0.6037567853927612,0.5067895650863647
1782,28.373360107421878,5.133520126342773,0.2562812566757202,0.4367241859436035
1783,28.38919873046875,5.112407684326172,0.230065107,0.2850623726844787
1784,28.40503759765625,4.310466766357422,0.39232707,-0.900968015
1785,28.42087598,3.093608856201172,-0.00620544,-1.413350105
1786,28.43665380859375,4.486822128295898,-1.392738938,-1.300902009
1787,28.452553466796875,5.998456954956055,-2.83838129,-0.460728943
1788,28.468391845703124,5.509551048278809,-3.518340588,-0.213348031
1789,28.48416943359375,2.6920766830444336,-3.193483353,-0.744630456
1790,28.500069091796878,-0.707790375,-2.517823219,-1.165797234
1791,28.51590795898437,-2.728975773,-2.150762081,-1.645541191
1792,28.531807373046878,-3.030909538,-1.841131687,-1.501472712
1793,28.54764624023437,-2.422056198,-1.84973073,-1.425798535
1794,28.563484619140624,-1.570512772,-2.001510382,-1.01927352
1795,28.579353759765624,-0.286420822,-2.205617428,-0.729643345
1796,28.595192626953125,0.8400955200195312,-1.935872555,0.1838879585266113
1797,28.61109228515625,0.3947000503540039,-1.141363978,0.585236669
1798,28.626869873046875,-1.278390884,-0.274306953,0.077356339
1799,28.642739013671875,-2.367054939,0.3363366723060608,-0.29353106
1800,28.65863867,-3.364760876,0.5333935022354126,-0.767549276
1801,28.67438574,-3.4896698,0.2417717576026916,-1.195260763
1802,28.690285400390625,-3.354131222,-0.076682031,-1.048071623
1803,28.70612402,-3.857131958,0.1521473526954651,-1.34465611
1804,28.72196240234375,-4.40626812,0.3413516879081726,-2.093182802
1805,28.73780126953125,-4.520421505,0.5800580382347107,-2.091886997
1806,28.75363965,-4.255383492,1.0762206315994265,-1.8724612
1807,28.76957006835937,-3.385485172,0.9906158447265624,-1.861337304
1808,28.78537793,-1.265440941,0.7149850130081177,-2.12954092
1809,28.801155517578124,1.0847091674804688,0.2121956348419189,-1.764570355
1810,28.81705517578125,2.1124982833862305,0.2946033477783203,-1.306965232
1811,28.832863525390625,1.8314733505249023,0.8813806772232056,-1.185985446
1812,28.848732666015625,1.2483701705932615,1.2061598300933838,-1.211110592
1813,28.864571044921878,2.205569267272949,0.7225466966629028,-1.01709938
1814,28.88040991210937,3.8214645385742183,-0.062313199,-0.768877625
1815,28.89627905273437,5.620917320251465,-0.331469655,-0.011463642
1816,28.91205664,5.021512985229492,0.1493650674819946,0.3338490724563598
1817,28.927834228515625,3.506507873535156,0.7506803274154663,0.4827678203582763
1818,28.94364208984375,2.446624755859375,0.3243716955184936,0.6151691675186157
1819,28.959450439453125,3.1157922744750977,-0.957070231,0.9330670833587646
1820,28.975319580078125,4.725613594055176,-2.646377087,1.3778736591339111
1821,28.99112744140625,4.733293533325195,-3.310117722,1.6096864938735962
1822,29.00702709960937,2.7313051223754883,-3.149538279,1.233310341835022
